>compound Sulfapyridine
#instrument LTQ Orbitrap XL Thermo Scientific
>formula C11H11N3O2S1
#smiles c1(S(Nc2ccccn2)(=O)=O)ccc(N)cc1
#inchi InChI=1S/C11H11N3O2S/c12-9-4-6-10(7-5-9)17(15,16)14-11-3-1-2-8-13-11/h1-8H,12H2,(H,13,14)
>charge 1
>ionization [M+H]+
>parentmass 250.0645

>collision 45
65.0386 24346.0
67.0418 2701.4
68.0495 23872.1
78.0339 3563.7
79.0177 3231.0
80.0495 2548.4
92.0495 185289.7
93.0446 4797.0
93.0573 16515.0
94.0526 29116.2
94.0649 2980.2
95.0604 193909.1
96.0443 5621.3
108.0444 384718.6
110.0599 2476.7
120.0556 2427.1
156.0114 505382.7
157.0066 58176.4
169.0766 4375.8
184.087 324624.2
186.1026 7524.7
250.0641 112790.2

>collision 30
65.0384 9754.2
68.0494 4545.5
78.0336 3135.0
92.0494 113686.1
93.0449 5012.4
93.0573 8246.8
94.0523 7809.3
95.0603 134673.3
108.0443 218756.7
156.0113 609286.5
157.0066 66488.6
184.0868 344265.7
186.1028 10165.6
232.0528 5243.3
250.0645 1789540.9

>collision 35
92.0494 32042.2
93.0447 1426.5
95.0603 27483.5
108.0443 88626.6
156.0114 852158.9
157.0065 73535.4
184.0869 486154.3
186.1023 5554.3
232.0538 51329.2
250.0644 16615.3

>collision 60
65.0386 99352.1
67.0419 5853.1
68.0495 71988.7
69.0336 3325.6
78.0337 9407.7
79.018 9881.3
92.0495 420965.3
93.0449 29717.9
93.0572 39459.9
94.0526 69295.2
95.0604 307351.2
96.0444 16124.3
108.0445 675352.5
110.06 31270.1
120.0555 3557.2
156.0114 230045.7
157.0067 33486.5
167.0605 8822.0
169.0755 4518.6
184.0869 320793.6
186.1019 6061.1

>collision 60
65.0386 58152.4
66.0336 2124.4
67.0416 4887.2
68.0494 39149.2
69.0334 3813.2
78.0338 6104.7
79.0179 5748.1
80.0495 4315.7
92.0495 275626.2
93.0447 14267.9
93.0573 24270.9
94.0525 43295.0
95.0604 187176.7
96.0443 8160.6
108.0444 446090.0
110.06 15382.6
120.0555 5090.2
156.0113 133863.9
157.0066 18289.0
167.0606 2707.2
169.076 3226.1
184.0868 194894.3
186.1027 3323.3

>collision 75
65.0386 185677.0
67.0416 18039.3
68.0494 44474.5
78.0337 11203.1
79.0176 7291.3
80.0494 19954.8
92.0495 498251.5
93.0447 34528.3
93.0572 43401.6
94.0525 73003.9
95.0603 242410.1
96.0445 15431.9
108.0444 542606.8
110.06 45653.7
120.0554 4248.7
156.0117 28970.1
157.0068 7881.4
167.0604 43130.0
168.0686 9533.3
183.0793 12277.6
184.0868 188106.4

>collision 75
65.0386 107536.1
67.0417 9799.0
68.0495 27490.0
78.0338 5601.9
79.0178 3847.3
80.0495 10611.1
92.0495 305362.0
93.0447 16507.4
93.0573 26589.3
94.0525 40286.8
95.0604 148527.4
96.0444 9120.9
108.0444 339895.6
110.06 26879.4
120.0554 1867.2
156.0113 18246.8
157.0071 3020.1
157.0761 3715.7
167.0602 20457.1
168.0679 3512.8
183.0791 4452.9
184.0869 100960.8

>collision 15
92.0492 7697.0
95.06 2884.7
108.0444 10357.0
156.0113 47476.5
184.0875 15389.9
232.0533 4001.7
250.0645 2225136.6

>collision 15
92.0491 14547.0
95.0602 4900.6
156.0112 64219.4
184.0864 18638.9
250.0646 3164138.7

>collision 90
65.0386 269071.9
66.0341 3348.5
67.0417 38305.7
68.0495 19589.5
78.0337 11023.1
80.0495 57661.8
92.0495 423545.4
93.0447 22290.0
93.0573 44857.9
94.0526 54873.6
95.0604 191125.7
96.0445 17558.6
108.0444 378201.5
110.0601 39531.1
157.0754 5533.8
167.0604 53576.8
168.0682 18786.6
183.0791 21352.1
184.087 63301.3
250.0653 3778.0

>collision 35
65.0383 8251.8
92.0494 100136.3
93.045 6025.5
95.0603 61118.4
108.0444 233810.2
156.0115 2078503.1
157.0065 212965.4
184.0869 1238021.7
186.1027 8901.5
232.0538 134187.7
250.0636 37457.6

>collision 45
65.0385 41737.5
68.0494 37187.1
78.0338 5553.0
92.0495 307702.7
93.0448 16882.0
93.0573 38994.2
94.0525 37584.2
94.0652 4816.3
95.0603 320129.2
96.0444 8601.4
108.0444 622194.1
110.0597 5341.8
120.0562 6209.8
156.0114 806579.2
157.0065 92741.0
184.0868 499305.7
186.1019 12151.5
250.0648 213321.4

>collision 90
65.0386 167264.1
66.0338 2232.2
67.0416 20350.3
68.0495 9362.4
78.0338 6725.1
79.0178 1432.0
80.0495 33678.6
92.0495 253142.2
93.0447 9765.3
93.0573 26190.5
94.0525 33016.9
95.0604 119287.3
96.0444 12550.9
108.0444 227292.1
110.06 25247.0
156.012 1159.3
157.076 3312.9
167.0603 29509.7
168.0682 12191.9
183.079 11840.6
184.0868 34380.8

>collision 30
65.0386 4461.0
68.0494 3590.6
92.0495 80286.8
93.0449 2951.1
93.0574 5146.4
94.0524 5502.2
95.0604 99622.3
108.0444 146864.3
156.0114 419963.0
157.0066 49479.1
184.0869 245107.1
186.1025 4017.6
232.0547 4491.2
250.0646 1256744.2

