>compound L-Ornithine
#instrument LTQ Orbitrap XL, Thermo Scientfic
>formula C5H12N2O2
#smiles NCCC[C@H](N)C(O)=O
#inchi InChI=1S/C5H12N2O2/c6-3-1-2-4(7)5(8)9/h4H,1-3,6-7H2,(H,8,9)/t4-/m0/s1
>charge 1

>ms1peaks
100.111848 96035.34375
102.033748 69394.90625
115.065132 32015.724609
115.082619 40439.695313
115.084718 105943.507813
115.086583 6151058.0
115.088216 87684.484375
115.088682 74347.4375
115.090315 34020.191406
115.108041 35633.945313
116.048704 40910.464844
116.066416 41112.808594
116.068778 119721.265625
116.070432 7038829.5
116.072085 114417.664063
116.072794 90704.460938
116.074447 40987.773438
116.08933 232812.46875
116.092165 34361.925781
117.07365 334870.03125
130.008048 133145.578125
132.65252 56084.382813
132.948233 59653.121094
133.016883 91904.3125
133.02007 30969.220703
133.047314 62815.316406
133.070217 318561.3125
133.073696 49879.640625
133.075146 33821.75
133.078046 36400.910156
133.079785 44168.171875
133.081525 38259.675781
133.083265 54019.855469
133.085005 38625.070313
133.086165 55017.085938
133.087325 55150.390625
133.087905 41438.167969
133.089355 113119.570313
133.090225 127065.390625
133.091965 390703.78125
133.094576 962526.0
133.095446 405973.375
133.096896 61011024.0
133.098926 889613.75
133.099506 719131.5625
133.100956 174338.453125
133.101536 318253.125
133.103277 65971.867188
133.104437 139662.296875
133.105597 60490.59375
133.106758 52386.351563
133.108208 54164.339844
133.109658 44741.574219
133.110238 48680.199219
133.111109 40026.960938
133.111979 31034.832031
133.113719 47220.535156
133.11517 42814.242188
133.11604 32942.855469
133.119521 42784.273438
133.120392 53674.746094
133.123583 328042.375
133.146505 64550.28125
133.173788 32757.447266
133.177271 104951.0
133.245808 74335.226563
133.543508 52472.144531
134.093795 117103.726563
134.097902 33759.957031
134.099955 2748343.25
134.102008 37032.367188
134.986037 56177.21875
135.100454 97188.015625
141.958171 102715.953125
143.039018 57784.089844
157.999926 32190.103516
158.002552 2422280.75
158.005178 31117.611328
163.132278 95438.789063
170.095866 31420.052734
171.149125 1005487.8125
174.127584 402648.5
176.013337 51116.058594
182.984796 116873.953125
187.125577 115681.710938
199.028604 67298.640625
199.179842 39348.546875
203.060157 122184.789063
249.065355 34103.597656
265.180585 67263.546875
265.18711 5322132.5
265.19282 54359.558594
265.194452 48350.9375
266.18998 342401.25
335.149106 120317.257813
391.282894 289743.375
392.286254 63853.9375
421.233509 43501.972656
523.37277 144401.28125
553.321953 59744.285156
100.111848 71214.507813
102.033553 66320.054688
115.064899 30890.917969
115.081919 36061.015625
115.082619 41918.847656
115.084251 75069.53125
115.08635 5906873.5
115.088449 70095.8125
115.089615 31436.582031
115.090315 39857.792969
116.048468 35306.761719
116.065708 36534.460938
116.066653 44971.953125
116.068306 94583.820313
116.070196 7283844.0
116.072321 91351.101563
116.073502 41278.996094
116.074447 44593.6875
116.08933 243229.78125
116.092165 39320.058594
117.07341 268090.75
132.652232 53725.085938
132.946786 53248.402344
133.016593 92403.804688
133.046734 71892.898438
133.069927 301537.15625
133.074856 31994.472656
133.076596 34609.875
133.077756 32599.082031
133.081815 59833.820313
133.083555 69042.289063
133.084715 38126.664063
133.085295 40268.589844
133.085875 51013.292969
133.086745 69868.601563
133.087615 51163.792969
133.089355 161860.734375
133.090225 38698.429688
133.092255 390835.15625
133.094286 721840.875
133.096606 61255140.0
133.099506 707795.8125
133.100666 350862.1875
133.101536 368219.4375
133.102987 119188.640625
133.104147 106142.304688
133.106467 85092.921875
133.107048 45338.148438
133.108208 47796.042969
133.109368 52386.5
133.110238 67982.421875
133.111399 60848.878906
133.112849 32582.492188
133.11604 45298.59375
133.123583 307297.125
133.146505 76013.8125
133.176981 106012.375
133.246679 61982.324219
133.257429 32291.019531
133.543217 48887.90625
134.093502 163504.140625
134.097315 34712.882813
134.099662 2844469.75
135.100158 76818.5
137.131699 33052.066406
141.957852 176704.703125
149.022561 123313.140625
155.078306 41755.574219
158.002552 370307.21875
158.095628 53421.667969
158.96049 40806.769531
163.132278 70392.203125
171.148702 956795.0625
174.12715 387891.21875
179.062747 66274.070313
182.984328 250909.359375
187.125577 94611.992188
199.179311 66600.53125
223.062608 144804.875
233.020703 38410.804688
265.17406 31221.042969
265.179769 56923.140625
265.186295 6710451.5
265.194452 54124.695313
266.18916 432838.78125
319.103702 49618.820313
391.282894 720205.4375
392.284786 105999.898438
451.192028 74614.664063
459.200617 44997.394531
523.370508 444668.5625
524.373827 90195.757813

>collision 35
115.053391 228.159698
116.077545 234.217621
133.154236 6699.96875
148.853241 3.545747
156.241486 5.451441
168.848129 5.124713
177.357559 3.688133
221.182968 4.849814
223.163483 3.353354
223.930756 12.757644
234.999069 4.481236
238.20195 10.364416
246.479172 21.676311
247.23407 137.315002
250.398026 4.0036
265.259918 6.155567

>collision 35
69.999039 30215.705078
70.947281 281.577698
73.946098 45.586586
74.893784 18.718601
88.028671 407.089661
97.94577 182.215347
99.14006 23.935989
116.023819 34.69566

>collision 35
70.093597 11418.674805
87.913574 847.445496
97.154846 923.173462
115.050308 788409.75
115.99649 556407.3125

>collision 35
69.9608 37714.277344
70.923386 282.777283
75.013527 66.536667
88.024231 381.24942
98.013565 144.486023

>collision 35
70.05397 11141.857422
88.064224 704.354187
97.112625 578.390991
115.030899 751057.0625
115.984512 549972.25

