>compound Clarithromycin
>formula C38H69NO13 
>ionization [M+H]+
>parentmass 748.4841677200905
#inchi InChI=1S/C38H69NO13/c1-15-26-38(10,45)31(42)21(4)28(40)19(2)17-37(9,47-14)33(52-35-29(41)25(39(11)12)16-20(3)48-35)22(5)30(23(6)34(44)50-26)51-27-18-36(8,46-13)32(43)24(7)49-27/h19-27,29-33,35,41-43,45H,15-18H2,1-14H3/t19-,20-,21+,22+,23-,24+,25+,26-,27+,29-,30+,31-,32+,33-,35+,36-,37-,38-/m1/s1
#inchikey AGOYDEPGAOXOCK
#Ion_Source LC-ESI
#Instrument qTof
#Compound_Source Isolated
#PI Sirenas
#Data_Collector Ed Esquenazi 
#Scan -1
#Precursor_MZ 748.486
#ExactMass 0.0
#Charge 1
#CAS_Number N/A
#Pubmed_ID N/A
#Smiles N/A
#INCHI_AUX N/A
#Library_Class 3
#SpectrumID CCMSLIB00000004872
#IonMode Positive
#UpdateWorkflowName UPDATE-SINGLE-ANNOTATED-BRONZE
#LibraryQualityString Bronze
#TaskID d19310cd93df49b68e9fcbec27720eb5
##Scan# 2
#SpectrumFile Clarithromycin.mgf
#LibraryName fda_library.mgf
#MQScore -1
#Organism fda_library
#TIC_Query 0
#RT_Query -1
#MZErrorPPM -1
#SharedPeaks 0
#MassDiff 0
#LibMZ -1
#SpecMZ 748.486
#SpecCharge 0
#internalFilename spec-00000.mgf

>collision 10
115.075188 146.572601
115.171844 11.33333
115.58783 9.666667
116.071999 137.908203
116.107056 510.792206
116.232323 6.25926
116.257133 10.00417
116.290848 12.37037
126.552582 6.208333
126.660233 1.666667
127.073822 184.5177
127.419312 2.695513
127.464119 2.375
131.08551 58.682968
131.110657 4.490385
156.544815 4.481482
157.172195 5.668859
157.200104 32.782982
157.303101 5.025
157.342621 14.83737
157.387054 2.520833
157.464539 4.711957
157.490616 7.291667
157.507217 12.85417
157.647949 6.667929
157.665421 12.20513
157.740738 16.07626
157.980087 5.097222
158.116928 4186.647949
158.171768 17.125
158.186646 32.229519
158.216309 3.011905
158.246262 33.826839
158.260941 2.341667
158.290695 3.760417
158.325714 4.382936
158.383347 29.46834
158.395767 7.031565
158.417694 27.68627
158.452576 8.815476
158.46582 4.003205
158.478592 15.69048
158.49649 11.42178
158.540283 9.0
158.553421 11.11725
158.575333 11.3344
158.60199 10.53186
158.636673 8.086538
158.657013 9.03728
158.677155 27.12097
158.714645 11.68056
158.772598 6.37037
158.939011 6.133333
158.993362 14.72185
159.044327 12.56199
159.399994 3.703704
159.545166 8.022223
159.681229 8.670455
159.803864 4.066667
162.187943 3.367424
163.364914 1.680555
176.499634 19.02206
221.151917 28.744049
284.182343 28.37742
297.379547 6.926282
314.313843 8.057693
316.210052 164.483795
339.208954 57.688869
365.23288 68.676666
365.351807 5.19853
383.243927 26.629219
397.255585 69.118462
464.303467 38.023472
522.346069 89.462982
540.371216 19.346861
540.573486 6.564103
554.580994 14.34722
555.510986 25.10816
556.05072 6.05
558.029968 11.70968
558.363831 473.439697
558.777832 15.80094
558.858032 2.678571
558.909119 3.413462
559.443909 16.084089
559.547546 5.933333
572.365906 32.95919
581.013123 6.740942
582.516785 5.592949
586.387939 7.041667
586.583679 15.42954
586.62384 5.002451
587.426941 6.125
588.040283 2.700758
588.225891 3.335526
590.245605 1.708333
590.388306 2222.201904
590.497864 2.708333
590.543152 17.487539
590.660828 20.434299
590.692322 16.668619
590.726501 26.18293
590.804443 20.470831
590.852844 5.342593
590.905273 10.22222
591.077515 5.013889
591.114197 11.74833
591.330688 3.75
591.470154 11.54825
591.504211 13.00126
591.536072 29.026791
591.581482 9.061275
591.634888 18.432541
592.350525 7.027778
592.917969 8.736842
596.137512 11.09524
603.331848 4.349638
716.459167 34.180801
717.992188 10.2807
743.381653 2.003788
743.438721 3.335526
743.713135 11.53596
743.865479 9.683333
743.938232 11.75269
744.336609 16.860189
748.36969 13.52724
748.481506 1143.334961
748.684143 6.615
748.76947 12.02541
749.074097 5.69697
749.169739 20.19467
749.216919 7.700269
749.289062 22.607821
749.40686 30.547449
749.626526 25.87533
749.84552 8.366936
749.973999 18.08316
750.045532 4.380952
750.321838 8.375
755.658264 7.363095
1424.390625 3.402778
