>compound Levofloxacin
>formula C18H20FN3O4 
>ionization [M+H]+
>parentmass 362.151489
#inchi InChI=1S/C18H20FN3O4/c1-10-9-26-17-14-11(16(23)12(18(24)25)8-22(10)14)7-13(19)15(17)21-5-3-20(2)4-6-21/h7-8,10H,3-6,9H2,1-2H3,(H,24,25)/t10-/m0/s1
#inchikey GSDSWSVVBLHKDQ
#Ion_Source LC-ESI
#Instrument qTof
#Compound_Source Isolated
#PI Sirenas
#Data_Collector Ed Esquenazi 
#Scan -1
#Precursor_MZ 362.151
#ExactMass 0.0
#Charge 1
#CAS_Number N/A
#Pubmed_ID N/A
#Smiles N/A
#INCHI_AUX N/A
#Library_Class 3
#SpectrumID CCMSLIB00000005824
#IonMode Positive
#UpdateWorkflowName UPDATE-SINGLE-ANNOTATED-BRONZE
#LibraryQualityString Bronze
#TaskID d19310cd93df49b68e9fcbec27720eb5
##Scan# 2
#SpectrumFile Levofloxacin.mgf
#LibraryName fda_library.mgf
#MQScore -1
#Organism fda_library
#TIC_Query 0
#RT_Query -1
#MZErrorPPM -1
#SharedPeaks 0
#MassDiff 0
#LibMZ -1
#SpecMZ 362.151
#SpecCharge 0
#internalFilename spec-00000.mgf

>collision 10
101.14949 23.52326
104.050018 26.75922
116.04792 13.5558
122.037941 13.54602
124.052551 23.514709
137.052124 50.314098
150.033844 130.309998
157.041245 35.140362
158.022903 18.375
158.152069 59.50164
159.050812 19.191971
161.808426 11.01078
162.069733 22.710251
163.064056 30.82877
164.051025 37.5
166.06134 22.316641
170.981079 11.50061
171.050385 43.915562
172.072586 53.071049
172.985046 17.82008
175.044571 30.219509
178.03299 60.511871
178.261581 13.05357
179.036011 137.866592
180.046036 90.155052
188.049286 66.010559
190.21196 11.29602
192.044479 110.288803
193.038742 213.885193
193.070862 32.626431
194.059891 80.053871
194.327271 14.37756
199.048874 106.630203
199.143036 13.45508
199.201141 10.79963
200.058014 103.539902
200.259338 25.470051
201.593704 19.11002
203.055161 20.130211
203.714569 13.24321
204.046524 48.300571
204.068741 50.662079
205.042206 175.692703
205.077682 284.903107
205.59169 21.84783
205.647827 7.9375
210.603882 15.98011
212.06221 12.10069
215.060303 13.50101
216.075104 37.827271
217.043365 59.271271
217.070786 15.44048
217.096909 33.057961
218.043442 54.18478
218.082336 25.136789
218.244904 13.25781
219.056259 489.268097
220.290009 14.28125
221.070862 480.254303
221.231369 14.80887
223.030945 11.3049
224.086578 15.56002
225.039124 27.18166
225.063644 39.000721
227.803864 12.08658
228.10376 13.27083
230.099426 54.29657
231.056259 55.877449
231.091904 225.924606
232.002625 14.29249
232.078552 57.900902
233.072052 814.182617
233.662506 13.97637
234.087524 76.526016
234.537613 11.2875
235.088211 67.228157
238.059433 26.950001
239.082275 14.52431
240.075409 39.44952
241.097183 286.667511
241.901062 3.6875
243.086151 81.292053
243.108597 35.133339
244.071198 29.041519
244.106735 23.286989
245.073746 90.576538
246.089844 39.837601
247.086868 955.515198
247.207535 26.842649
247.290131 14.51339
247.57518 11.58224
247.727646 20.783751
247.979919 11.88894
248.073074 20.573429
250.095428 31.222679
253.080978 18.69906
253.112732 18.601561
255.059753 13.23471
255.102188 200.388901
256.121887 40.700001
257.363403 11.78125
258.067505 11.52009
259.085419 147.086807
259.117889 30.84186
259.444122 14.76801
259.5177 24.785469
259.569458 17.14205
259.652802 33.806252
259.686523 15.19901
259.723297 22.24564
259.741211 60.270729
259.761536 7.240489
259.806213 25.89205
259.841736 27.28516
259.895508 26.387779
260.055603 14.5558
260.201233 15.76563
260.247955 21.29458
260.340912 20.31818
260.421326 22.76042
260.50531 15.69823
260.582794 11.2625
260.618011 11.22368
260.697754 13.60355
260.811737 13.96307
261.004303 13.5251
261.027679 54.924149
261.060059 71.671059
261.103821 36100.730469
261.646332 43.279652
261.696106 18.088209
261.715668 15.46246
261.769562 36.718189
261.811951 42.293289
261.843292 43.424492
261.88501 89.638428
261.924255 23.96125
262.179871 26.79891
262.403015 15.35804
262.563721 13.06002
262.682739 26.07004
262.707855 27.623091
262.964478 23.790661
263.195374 18.80357
263.41568 23.83882
263.449738 14.46314
263.596893 13.12756
263.709045 18.154499
264.181427 12.54018
264.966827 4.132813
267.074158 23.02174
267.109711 39.50024
267.36795 12.20066
268.07605 27.9375
268.106476 159.104004
268.144501 123.532303
269.128845 101.875702
270.122406 531.126526
272.046936 14.38297
273.103638 236.317398
273.314178 10.75339
274.427673 28.14187
275.12088 84.533287
277.917542 63.75021
280.144287 30.489861
282.084137 44.488129
283.125916 16.7915
284.292358 1.96875
286.053619 18.17308
287.086121 63.94231
288.083588 44.212021
288.113434 82.616814
288.327454 23.841841
289.126678 64.666656
296.103973 95.596153
296.139099 62.750149
298.153748 661.097229
298.268005 11.50044
298.712799 11.52285
298.74115 19.86364
298.851654 4.785156
299.296356 12.04151
300.332275 12.89335
301.083466 201.612198
301.121368 213.849106
303.354431 12.08125
305.09079 39.034081
312.264038 10.91071
314.118896 14.43078
314.223633 18.51021
314.304413 25.76042
314.517395 15.28752
315.040649 16.330641
315.780579 31.57819
316.073456 91.049454
316.108398 504.82431
316.14502 3580.542969
316.241425 128.136795
316.307465 127.431602
316.370789 146.445801
316.442169 143.949997
316.478271 153.841507
316.507782 85.426407
316.535248 100.669998
316.68338 116.948898
316.844971 79.580307
317.092377 24.26683
317.260345 28.196159
317.283203 39.023441
317.408142 23.59
317.585205 29.44331
317.642548 20.36875
317.714905 14.95125
317.822723 17.5016
317.900818 24.72578
317.932678 13.8125
318.017456 32.56142
318.045532 90.375099
318.162079 116627.796875
318.316437 17.29586
318.461823 6.520032
318.605774 11.44471
318.703979 10.81875
318.723969 61.34713
318.799164 168.445908
318.878021 161.539398
318.919312 76.945396
318.959534 185.350098
319.015411 95.077347
319.100372 237.665298
319.143341 4.310662
319.243286 155.574295
319.360992 75.482887
319.401123 14.2498
319.437378 35.389709
319.489166 53.299789
319.581421 67.118408
319.633392 33.079681
319.67038 29.7558
319.764557 42.729839
319.824585 15.72115
319.882324 22.91761
320.064178 22.13007
320.190033 16.250351
320.283478 16.622959
320.330963 13.99491
320.394623 22.222321
320.51059 14.42113
320.565887 42.405079
320.626953 22.504471
320.71106 17.446791
320.833862 32.08432
321.723663 14.47533
322.048462 30.836121
322.401001 27.47784
322.453735 12.55817
322.529968 11.33951
322.630524 11.28125
322.681091 13.13297
322.928101 11.46875
323.735718 11.19792
323.924103 12.11851
324.131012 116.465103
324.530396 19.309191
324.864563 19.722429
329.11853 31.861111
330.993164 18.25433
338.773804 33.867229
341.869263 12.31667
341.936615 11.76202
341.98941 4.3
342.013611 14.75
342.064758 27.7915
342.099548 37.5084
342.14978 100.349899
342.207214 17.03125
342.297211 12.79018
342.350311 13.26042
342.419983 23.79167
342.981537 16.5292
343.599792 2.002083
343.863159 15.83125
344.140717 14976.049805
344.223297 12.23011
344.274109 2.666667
344.411346 9.583333
344.432495 32.85532
344.497406 23.03618
344.540497 2.008929
344.583679 65.586533
344.639923 19.54952
344.668732 50.300579
344.70166 13.51667
344.753632 9.861608
344.785614 54.971802
344.812134 48.327862
344.843353 18.83103
344.876068 29.887501
344.91864 11.42443
344.950592 27.331961
344.992889 36.320381
345.021149 25.186871
345.264435 14.78547
345.393768 20.7624
345.626373 13.7103
346.474243 11.17241
348.477905 19.626431
352.391785 12.25055
356.242401 22.7328
359.742889 50.277241
359.783173 15.5372
359.809998 14.25042
359.846405 45.01141
359.90329 89.454079
359.935883 47.730659
359.983612 36.875
360.01297 101.358498
360.042358 33.84087
360.092468 34.660259
360.118744 31.27515
360.160156 22.507811
360.212738 31.035721
360.294342 22.072491
360.3284 15.52009
360.57077 19.887779
360.87796 17.826799
361.16333 14.27686
361.433929 16.38089
361.465332 12.2964
361.507568 11.50568
361.719147 17.38682
362.062408 31.966961
362.151489 41584.488281
362.355103 5.555555
362.380188 4.923611
362.633057 2.28125
362.6604 12.66667
362.725494 9.472222
362.753021 117.667603
362.803345 29.64784
362.851715 72.276611
362.880829 48.156342
362.906921 33.579411
362.958679 39.958019
362.992828 51.16011
363.017426 55.37656
363.061249 59.177021
363.305481 29.83514
363.426758 12.35962
363.47049 35.180038
363.649475 18.12756
363.687439 16.267241
363.711395 13.3996
363.770721 11.78125
364.141693 38.020828
364.206757 12.87813
364.33429 17.79002
364.374115 15.75893
364.430817 13.01281
364.726776 15.62813
364.782959 14.74006
365.009644 15.33681
365.367859 11.51324
365.562622 13.04327
365.887421 20.48077
366.233582 11.57143
366.331818 15.08403
372.833405 12.30388
501.15564 29.362671
542.26825 13.92445
650.832825 29.82877
1159.565796 13.21875
