>compound Flurbiprofen (Ansaid)
>formula C15H13FO2
>ionization [M+H]+
>parentmass 245.09723432809054
#inchi InChI=1S/C15H13FO2/c1-10(15(17)18)12-7-8-13(14(16)9-12)11-5-3-2-4-6-11/h2-10H,1H3,(H,17,18)/t10-/m1/s1
#inchikey SYTBZMRGLBWNTM
#Ion_Source LC-ESI
#Instrument qTof
#Compound_Source Commercial
#PI Dorrestein
#Data_Collector Garg_Neha
#Scan -1
#Precursor_MZ 245.097
#ExactMass 244.09
#Charge 1
#CAS_Number 5104-49-4
#Pubmed_ID N/A
#Smiles C1=C(C(=CC(=C1)[C@](C(O)=O)(C)[H])F)C2=CC=CC=C2
#INCHI_AUX N/A
#Library_Class 1
#SpectrumID CCMSLIB00000078237
#IonMode Positive
#UpdateWorkflowName UPDATE-SINGLE-ANNOTATED-GOLD
#LibraryQualityString Gold
#TaskID 77f51c88eb8b467eb4a01dd2d0cb90d2
##Scan# 1745
#SpectrumFile Plate4_1_20_GH2_01_16503.mzXML
#LibraryName FDALibrary_2_04302014.mgf
#MQScore -1
#Organism FDALibrary_2_04302014
#TIC_Query 0
#RT_Query -1
#MZErrorPPM -1
#SharedPeaks 0
#MassDiff 0
#LibMZ -1
#SpecMZ 245.097
#SpecCharge 0
#internalFilename spec-00000.mgf

>collision 10
49.238922 164.0
61.786392 164.0
62.657715 152.0
72.030457 208.0
78.150078 140.0
78.643509 252.0
79.271332 192.0
87.172699 140.0
88.543877 180.0
91.495285 144.0
92.24691 236.0
95.024002 252.0
96.613754 164.0
100.945557 188.0
105.390739 180.0
106.098885 148.0
106.146042 212.0
106.827911 152.0
109.065308 212.0
111.107597 156.0
117.671768 160.0
120.792511 156.0
121.272034 160.0
126.65654 144.0
129.060059 216.0
131.308212 180.0
133.042648 148.0
135.053101 196.0
139.541153 180.0
141.064087 188.0
141.57515 208.0
151.0056 140.0
151.924149 244.0
152.058533 192.0
154.182037 160.0
154.538116 188.0
154.959015 188.0
159.058472 284.0
161.953583 192.0
165.066086 172.0
166.077667 152.0
166.768356 172.0
170.469238 140.0
171.062271 156.0
171.674515 144.0
177.072052 160.0
177.316391 224.0
178.075974 3000.0
179.084442 1608.0
179.112503 172.0
180.085007 264.0
181.129211 176.0
183.060608 840.0
183.871704 184.0
184.065948 1220.0
185.070633 168.0
185.101715 152.0
186.914963 200.0
188.08139 164.0
194.772659 220.0
196.074768 152.0
197.077805 544.0
198.016479 144.0
198.080902 272.0
198.877228 212.0
198.967667 144.0
199.090988 5248.0
200.094772 480.0
201.010452 192.0
201.101212 472.0
205.085831 148.0
207.0961 208.0
208.057938 184.0
209.651413 220.0
227.932358 164.0
229.959076 160.0
244.279175 188.0
245.094849 160.0
245.147827 188.0
1406.529297 228.0
1550.788696 164.0
1608.954834 184.0
1614.635986 172.0
1750.080322 168.0
1801.288696 144.0
1834.774902 160.0
1844.839844 172.0
1903.054443 204.0
1918.078491 236.0
