>compound MLS000728643-01!spiro[1H-indole-3,3'-pyrrolidine]-2,2'-dione
>formula C11H10N2O2
>ionization [M+H]+
>parentmass 203.082
#inchi InChI=1S/C11H10N2O2/c14-9-11(5-6-12-9)7-3-1-2-4-8(7)13-10(11)15/h1-4H,5-6H2,(H,12,14)(H,13,15)
#inchikey JLTRIORYVIOIIR
#Ion_Source LC-ESI
#Instrument qTof
#Compound_Source NIH Natural Product Library
#PI Dorrestein
#Data_Collector VVP/LMS
#Scan -1
#Precursor_MZ 203.082
#ExactMass 202.074
#Charge 1
#CAS_Number N/A
#Pubmed_ID N/A
#Smiles O=C1NCCC12C(=O)Nc3ccccc32
#INCHI_AUX N/A
#Library_Class 3
#SpectrumID CCMSLIB00000079635
#IonMode Positive
#UpdateWorkflowName UPDATE-SINGLE-ANNOTATED-BRONZE
#LibraryQualityString Bronze
#TaskID b1d8e8f6646f4e71acdff9ca3d919d08
##Scan# 1351
#SpectrumFile p1-A09_GA9_01_17881.mzXML
#LibraryName NIH_Natural_Products_Library.mgf
#MQScore -1
#Organism NIH_Natural_Products_Library
#TIC_Query 0
#RT_Query -1
#MZErrorPPM -1
#SharedPeaks 0
#MassDiff 0
#LibMZ -1
#SpecMZ 203.082
#SpecCharge 0
#internalFilename spec-00000.mgf

>collision 10
95.359116 168.0
97.794151 104.0
98.190155 164.0
98.679863 124.0
98.699638 40.0
98.976646 52.0
99.349251 144.0
100.439331 168.0
101.044609 156.0
101.170685 108.0
102.045387 172.0
102.109734 228.0
102.162025 80.0
103.054146 472.0
103.672287 64.0
104.046989 436.0
104.342102 188.0
104.757248 188.0
105.052826 180.0
105.070404 356.0
105.577744 212.0
106.024025 168.0
106.065613 288.0
106.348068 160.0
108.317192 64.0
109.062088 180.0
110.787766 84.0
111.083344 76.0
111.581039 48.0
112.012436 176.0
112.098816 168.0
112.86293 76.0
113.036377 136.0
113.742104 188.0
115.054565 1224.0
115.728973 132.0
115.90461 96.0
116.050369 664.0
116.133995 224.0
116.219803 104.0
116.868675 172.0
117.056808 2208.0
118.064339 568.0
118.947662 72.0
119.07135 348.0
122.080719 164.0
122.437225 124.0
123.744423 216.0
125.165421 88.0
128.04921 616.0
128.085815 200.0
128.505112 164.0
129.062988 148.0
129.431793 64.0
130.066818 1852.0
130.416367 144.0
130.951035 48.0
131.070099 300.0
131.096832 140.0
131.897919 200.0
132.044312 2500.0
132.080246 2276.0
132.137573 60.0
132.561615 56.0
132.972107 140.0
133.04808 592.0
133.085495 212.0
133.94928 124.0
134.048355 112.0
134.089828 176.0
134.899994 120.0
135.022537 192.0
138.399063 28.0
140.021698 200.0
140.051285 808.0
141.05275 108.0
142.066666 720.0
142.097092 160.0
142.22049 92.0
142.332062 44.0
143.076233 196.0
143.147659 52.0
144.075455 228.0
146.06131 352.0
148.029633 160.0
148.187073 52.0
148.220993 44.0
148.958511 156.0
150.119446 32.0
152.877777 56.0
157.080429 164.0
158.060104 476.0
159.062378 196.0
159.116837 140.0
159.999268 180.0
160.075714 1064.0
160.108368 132.0
160.402313 36.0
161.077927 208.0
161.156876 72.0
170.01741 204.0
170.521225 176.0
175.083923 44.0
181.928146 164.0
185.532272 196.0
186.042282 136.0
189.065018 148.0
203.083603 164.0
249.336838 112.0
252.302872 20.0
416.218323 20.0
493.495178 40.0
687.678467 156.0
791.593079 20.0
902.73877 200.0
957.846008 212.0
962.144104 140.0
970.669922 164.0
995.7005 140.0
1041.739502 168.0
1064.63623 272.0
1070.625488 116.0
1096.984375 192.0
1142.959961 176.0
1148.086182 244.0
1152.919678 36.0
1159.53833 212.0
1185.935059 164.0
1190.263794 140.0
1214.161011 164.0
1237.735352 188.0
1238.982056 164.0
1239.675781 196.0
1279.641113 88.0
1285.849731 232.0
1302.825439 104.0
1310.063721 232.0
1311.411133 180.0
1316.295044 180.0
1320.233398 112.0
1331.580322 72.0
1339.60498 152.0
1341.660034 164.0
1372.386475 96.0
1373.677124 212.0
1373.832031 152.0
1377.028076 156.0
1387.883911 44.0
1397.978638 176.0
1398.350708 144.0
1400.167236 272.0
1401.2771 100.0
1405.564331 184.0
1414.884399 188.0
1420.489624 132.0
1420.834717 92.0
1447.44043 124.0
1458.060547 104.0
1460.379395 76.0
1470.077515 132.0
1470.710938 152.0
1473.364258 212.0
1479.233643 108.0
1488.733032 216.0
1496.42981 228.0
