>compound TriamcinoloneAcetonide
>formula C24H31FO6 
>ionization [M+H]+
>parentmass 435.218
#inchi InChI=1S/C24H31FO6/c1-20(2)30-19-10-16-15-6-5-13-9-14(27)7-8-21(13,3)23(15,25)17(28)11-22(16,4)24(19,31-20)18(29)12-26/h7-9,15-17,19,26,28H,5-6,10-12H2,1-4H3/t15-,16-,17-,19+,21-,22-,23-,24+/m0/s1
#inchikey YNDXUCZADRHECN
#Ion_Source LC-ESI
#Instrument qTof
#Compound_Source Isolated
#PI Sirenas
#Data_Collector Ed Esquenazi 
#Scan -1
#Precursor_MZ 435.218
#ExactMass 0.0
#Charge 1
#CAS_Number N/A
#Pubmed_ID N/A
#Smiles N/A
#INCHI_AUX N/A
#Library_Class 3
#SpectrumID CCMSLIB00000005221
#IonMode Positive
#UpdateWorkflowName UPDATE-SINGLE-ANNOTATED-BRONZE
#LibraryQualityString Bronze
#TaskID d19310cd93df49b68e9fcbec27720eb5
##Scan# 2
#SpectrumFile TriamcinoloneAcetonide.mgf
#LibraryName fda_library.mgf
#MQScore -1
#Organism fda_library
#TIC_Query 0
#RT_Query -1
#MZErrorPPM -1
#SharedPeaks 0
#MassDiff 0
#LibMZ -1
#SpecMZ 435.218
#SpecCharge 0
#internalFilename spec-00000.mgf

>collision 10
101.023537 85.683258
101.059006 47.052872
105.070953 30.812031
107.084526 41.862999
108.570282 16.801029
109.063896 61.038929
111.045052 69.171257
111.078484 26.33036
115.036461 22.180771
115.050377 16.25658
119.048859 64.608383
121.046494 23.55372
121.064949 193.119202
121.179344 20.34514
123.07959 112.014397
124.409279 18.08082
124.96978 40.900002
125.06028 50.794121
129.069229 57.957611
131.082932 24.220011
131.24855 10.50195
133.063934 194.066299
134.924225 12.00069
135.078903 85.089417
137.058655 41.502079
137.076385 12.33681
139.074829 178.182693
139.518631 15.34091
141.056305 64.553627
142.080048 12.32207
143.070892 61.71978
143.085709 20.316179
145.062943 57.188129
145.096161 63.41943
146.527969 20.453461
147.080383 781.250671
149.094894 20.14706
151.035873 140.019608
151.073334 252.482697
153.052948 222.790298
153.088776 71.084747
155.070816 176.547699
155.348618 13.12756
157.099228 49.967461
158.3004 11.69471
159.061172 25.552959
159.077316 89.919952
159.083908 44.860821
159.613373 10.19669
161.059601 100.798897
161.097015 234.204102
161.861313 10.13901
163.05423 41.266651
163.075226 144.084198
167.072357 31.309999
169.062042 102.8974
171.079544 444.075897
173.093262 310.842712
173.245422 12.77356
173.684784 11.65844
177.395538 11.48491
179.069733 80.431587
179.208817 21.320009
180.072266 52.09375
181.096451 63.125
183.072556 14.20313
183.084717 19.291531
184.087631 23.282551
185.095276 310.741089
185.226273 14.48023
187.073944 139.488403
187.110931 60.037621
187.144882 13.82438
188.076157 92.142273
189.084503 52.526081
193.097885 117.635101
195.080231 52.10815
195.110291 18.05761
196.088608 59.053539
197.095993 70.824623
197.1315 114.970001
199.079697 10.34265
199.107697 117.357399
202.126617 27.557381
203.102112 33.643669
207.111664 112.412498
208.092651 21.95569
209.092316 77.647552
209.129242 35.213329
210.097504 41.600689
210.109253 51.144619
211.075012 16.50069
211.109833 83.241943
211.835663 21.06859
211.94017 13.5
212.111481 66.0625
212.122742 33.752178
213.093765 77.846977
213.127029 1195.991943
213.260681 15.55208
213.327728 17.015631
213.345398 21.76005
213.370804 11.53448
213.510742 24.989861
214.052567 11.61736
215.103073 32.47773
215.143005 107.902199
216.092743 26.109381
217.105362 10.96875
219.115509 42.77644
220.081909 18.13776
221.094498 57.791649
221.12915 35.093121
223.110611 681.575989
223.431595 14.18574
225.126907 745.178589
225.163437 16.082479
225.578506 25.3519
227.068893 19.45924
227.144562 51.498589
229.077759 15.53469
231.094467 30.68862
231.509125 11.47533
233.096085 53.003368
233.128983 25.413891
234.103317 82.039429
234.134979 29.014059
234.890335 10.01817
235.108368 227.154907
235.142075 39.051609
235.264496 10.11141
237.092361 113.949097
237.12619 466.654114
239.141861 316.325012
239.484375 11.03255
241.121979 328.598297
241.153107 28.00625
241.288254 10.65089
241.542984 11.1704
242.111755 22.030621
243.136017 20.46463
244.092926 32.35598
245.134247 35.275631
246.101578 31.341169
247.108429 97.956886
249.12822 246.085495
249.159805 21.1276
251.105743 46.63052
251.140381 354.222198
251.621414 12.75
253.121307 311.171509
253.155716 349.004486
254.138565 13.51166
254.171463 18.170139
255.103577 56.12009
255.133179 53.50211
255.177567 11.76905
257.109283 39.507172
257.130493 54.106819
259.110687 100.145401
259.14444 14.78333
260.119019 97.161499
261.125275 370.587311
261.459778 22.54265
262.346588 13.00208
263.141449 593.952881
263.368011 15.2822
263.62149 10.05125
263.966614 14.00833
264.025635 19.07548
264.113525 23.44458
265.120911 108.492302
265.157257 450.475494
265.408234 11.26042
267.138275 136.442505
269.114807 167.765198
269.152893 19.22229
269.327637 24.689659
271.131409 44.359371
273.123199 63.970219
274.888275 11.83854
275.142761 475.172791
277.121094 258.085999
277.161499 88.176842
278.371277 21.285509
278.545685 10.44792
279.097809 10.90715
279.136566 518.569824
279.177246 25.22669
279.494049 16.419069
279.545532 29.852079
279.861053 14.22581
279.890228 23.834749
281.151917 427.491791
281.374634 10.87335
281.497009 12.75368
283.133667 57.99128
283.166595 195.240707
283.984131 11.59259
285.122009 78.528473
291.136322 146.883102
291.418243 27.646151
292.27652 11.7613
293.111908 50.76416
293.152069 900.251587
293.735779 24.624371
295.128479 136.338303
297.146606 187.428207
298.239807 13.03565
301.159637 40.070351
303.136444 334.923401
304.095856 16.25758
309.144531 139.699905
311.162567 996.509521
311.351959 12.56918
311.444061 18.0597
311.970886 13.37019
312.139465 21.105591
313.154694 25.9904
316.06189 17.191179
319.166199 53.782581
321.149139 1003.507996
321.29129 12.47939
321.989685 10.71429
322.025085 10.3151
322.368134 26.11401
325.176331 28.08333
327.122742 70.852203
327.15506 63.51408
329.175598 142.314499
329.528992 12.79086
331.092712 31.92078
337.297058 10.625
339.158142 1329.904053
339.33493 15.28431
339.407959 14.50171
339.449707 10.58482
339.704681 21.157499
339.799866 20.818489
340.422974 19.71406
340.564941 13.3125
341.552673 11.51905
342.548798 10.84722
343.148956 118.958702
347.162842 10.54441
351.188324 44.363331
355.182953 12.07049
355.325836 13.89881
357.167236 613.896118
357.611481 10.77431
358.099091 21.21488
360.163086 61.38451
361.179291 51.19672
361.208954 10.87813
363.154938 29.88892
375.16098 37.214939
379.184143 52.312469
387.21936 16.26845
394.980225 19.967581
395.021301 11.1635
397.200073 1529.20105
397.34024 10.09407
397.374176 21.036329
397.423645 13.78561
397.49881 26.12384
397.578552 32.28545
398.091766 37.91568
398.750031 10.5125
415.211121 333.012787
