>compound Gestodene
>formula C21H26O2 
>ionization [M+H]+
>parentmass 311.201
#inchi InChI=1S/C21H26O2/c1-3-20-11-9-17-16-8-6-15(22)13-14(16)5-7-18(17)19(20)10-12-21(20,23)4-2/h2,10,12-13,16-19,23H,3,5-9,11H2,1H3/t16-,17+,18+,19-,20-,21-/m0/s1
#inchikey SIGSPDASOTUPFS
#Ion_Source LC-ESI
#Instrument qTof
#Compound_Source Isolated
#PI Sirenas
#Data_Collector Ed Esquenazi 
#Scan -1
#Precursor_MZ 311.201
#ExactMass 0.0
#Charge 1
#CAS_Number N/A
#Pubmed_ID N/A
#Smiles N/A
#INCHI_AUX N/A
#Library_Class 3
#SpectrumID CCMSLIB00000005053
#IonMode Positive
#UpdateWorkflowName UPDATE-SINGLE-ANNOTATED-BRONZE
#LibraryQualityString Bronze
#TaskID d19310cd93df49b68e9fcbec27720eb5
##Scan# 3
#SpectrumFile Gestodene.mgf
#LibraryName fda_library.mgf
#MQScore -1
#Organism fda_library
#TIC_Query 0
#RT_Query -1
#MZErrorPPM -1
#SharedPeaks 0
#MassDiff 0
#LibMZ -1
#SpecMZ 311.201
#SpecCharge 0
#internalFilename spec-00000.mgf

>collision 10
101.038452 30.767441
102.951118 4.125
103.053665 931.177673
103.173981 5.361111
103.654083 7.190217
103.923195 1.708333
104.204834 10.33452
104.507469 3.555556
104.578056 13.66667
104.613632 7.057692
104.634987 7.017544
104.672165 12.2549
104.809425 7.027778
104.905609 5.027778
105.033081 1538.05603
105.044846 102.333603
105.070152 3583.824951
105.112885 6.413462
105.12365 20.963539
105.166458 8.815476
105.211716 20.153271
105.230072 14.47704
105.243607 23.402411
105.276062 21.67244
105.308716 18.775
105.320312 11.48761
105.337143 13.58954
105.351479 10.00079
105.358627 12.01828
105.385422 22.967899
105.443909 9.081897
105.501511 13.04762
105.507439 1.720238
105.655487 17.68103
105.782875 12.59524
105.891357 15.87852
106.056038 30.059311
106.192276 2.333333
106.317894 6.25
106.483139 9.055108
106.511185 18.938881
106.641869 5.787037
106.665367 39.355919
106.824173 3.345238
106.849052 4.339286
107.049042 1862.906006
107.085197 1494.489014
107.138985 29.22439
107.155144 4.695513
107.179764 13.09722
107.194946 23.69389
107.20932 13.49135
107.23127 24.04167
107.256828 15.57143
107.27066 7.958333
107.282242 14.90948
107.292175 26.70146
107.339012 8.17385
107.364265 8.415
107.392029 5.747549
107.421875 7.334402
107.447121 7.00463
107.469948 22.68972
107.573425 15.00134
107.60585 6.840517
107.775528 5.76923
107.957901 23.347219
108.266434 22.98719
108.401184 1.720238
108.474342 13.00521
108.538879 8.674243
108.571304 16.44537
108.593292 9.333333
108.602966 17.70833
108.644051 8.001437
108.72393 22.00658
108.75721 11.25
109.064369 9199.789062
109.101364 636.250122
109.124367 12.8443
109.154762 8.527778
109.171303 21.929819
109.184959 1.720238
109.195641 86.522987
109.221169 31.55875
109.252106 6.916667
109.272766 3.782408
109.282059 9.484849
109.302757 15.075
109.316277 24.38788
109.3274 8.714286
109.364754 14.52381
109.379303 18.535139
109.430397 11.82143
109.447067 7.37037
109.457687 18.17452
109.469948 23.334061
109.47963 6.121212
109.5075 17.654169
109.545189 8.046875
109.555786 3.066667
109.58889 11.01235
109.618439 5.666667
109.628746 16.14982
109.646851 34.829288
109.676224 11.41667
109.957108 11.52525
110.113945 3.025
110.212532 15.51577
110.282112 6.98077
110.415054 8.881667
110.724792 18.375
110.797768 8.214286
110.940514 5.001984
111.079292 68.909912
111.112915 19.84127
111.244865 8.867857
111.270546 2.016667
111.784111 9.906746
114.047371 9.255208
114.4226 12.03858
114.493568 24.00952
114.53228 6.721154
115.054573 1268.784058
115.101044 7.416667
115.108452 8.148809
115.142143 2.0
115.168808 7.354167
115.205902 8.291667
115.267227 3.541667
115.373756 10.30876
115.470932 2.6875
115.541916 7.162634
115.962273 13.44004
115.968613 7.757883
116.061844 589.861511
116.107338 7.71627
116.119476 10.45581
116.163513 5.840278
116.437012 2.782408
116.444885 7.675388
116.471169 6.160257
116.550018 8.025641
116.62056 24.409229
116.764198 3.010417
117.004539 9.054825
117.070206 1693.146973
117.12561 4.413462
117.16301 7.520833
117.187576 12.32328
117.257172 4.0
117.282578 20.280041
117.294846 7.016304
117.367966 4.013889
117.396172 15.96014
117.419563 17.013889
117.495209 5.333333
117.502235 18.98246
117.630501 9.992117
117.664368 3.675
117.706848 14.38043
117.762505 5.0
117.868233 7.745098
117.921837 18.90542
118.039528 72.686951
118.19706 6.67803
118.469528 3.375
118.499825 6.338542
118.600525 9.426724
118.623734 45.560749
119.0495 161.539795
119.08577 2037.713989
119.144585 4.355392
119.190063 10.80303
119.228264 20.72588
119.266037 3.675
119.281258 14.06061
119.30838 9.748563
119.338631 2.720238
119.361038 12.17689
119.391449 6.020833
119.402481 2.782408
119.425667 15.17778
119.475075 17.194241
119.524529 5.675926
119.579109 2.893518
119.604523 9.694445
119.638954 15.52161
120.008041 11.3913
120.13765 6.369253
120.553932 5.265351
121.064049 430.698914
121.101471 467.077301
121.149185 13.70833
121.173225 7.710784
121.232208 3.727941
121.303505 43.009258
121.395538 21.4879
121.683083 10.50347
122.455658 6.710784
123.081108 623.0495
123.115448 65.022339
123.199776 8.671569
123.536057 4.166667
123.655846 6.366936
123.880264 2.6875
124.364876 7.337121
125.095505 133.830902
126.49649 6.371212
126.892105 1.777778
127.053749 386.902802
127.08358 3.003205
127.118439 52.503792
127.204971 10.2
127.248352 8.109649
127.308006 25.43561
127.329826 15.15648
127.358253 12.74516
127.409302 6.840517
127.457809 4.387821
127.566422 14.04167
127.731499 12.90774
127.892754 13.66731
128.062241 1411.743042
128.183777 31.88446
128.232498 14.41005
128.325882 11.35756
128.344894 16.46261
128.361526 45.429192
128.431198 3.111111
128.46785 9.32545
128.538849 4.844298
128.667282 41.37257
128.74646 13.62745
128.921936 3.857143
129.069489 2770.743896
129.127975 18.68548
129.145065 4.5
129.182739 22.62602
129.192337 34.326691
129.287735 3.083333
129.336823 14.48563
129.388382 10.47115
129.402893 11.30029
129.44223 4.746795
129.471176 8.135
129.499557 26.53651
129.605927 5.033333
129.645523 2.678571
129.804962 8.595239
129.930527 5.034091
129.990753 16.044451
130.240875 3.185606
130.312988 16.529091
130.335861 16.64621
130.395264 16.19286
130.402878 7.675
130.426743 12.36111
130.457367 4.640152
130.473419 6.816667
130.503311 10.00126
130.552582 13.7218
131.047562 332.841614
131.084488 1387.875
131.148041 2.041667
131.194962 5.454545
131.230835 7.116379
131.246765 7.672222
131.267258 9.25
131.330353 5.09375
131.354401 3.666667
131.455292 18.45303
131.659714 16.672621
131.697525 3.333333
132.219437 6.136111
132.337067 10.3343
132.375336 9.428572
132.393494 13.2402
132.669525 6.927469
132.920303 6.518939
133.064468 1024.942017
133.100861 933.823975
133.12323 10.55147
133.150726 10.33898
133.194885 4.681667
133.311218 10.45204
133.578598 6.75
133.681152 3.336538
133.934677 7.407407
134.34967 2.4
134.592224 4.531863
135.079483 816.296509
135.11821 185.612701
135.154388 23.48772
135.165451 3.025
135.253189 3.020833
135.998032 18.92308
136.219116 10.92287
136.381546 6.805555
137.093643 88.633568
140.361557 3.041667
140.441879 16.450581
140.532257 9.337501
140.831711 8.095239
141.070099 978.152283
141.101944 7.399193
141.126343 2.782408
141.156265 16.783159
141.337616 20.014669
141.402344 17.55191
141.530579 12.8
142.07692 734.160889
142.108124 5.380952
142.237244 19.780861
142.301773 4.333333
142.448074 12.80293
142.751129 12.11638
143.085403 1345.269043
143.125778 2.016667
143.150055 1.680555
143.204987 4.166667
143.213181 10.21491
143.258987 6.444445
143.325928 16.952921
143.5298 5.840278
143.643524 9.053572
143.763199 33.720741
143.809174 8.240196
144.054428 163.379105
144.343658 7.340952
144.749359 7.33477
145.06398 418.137299
145.10051 926.809326
145.13678 4.75
145.172409 2.375
145.508072 12.8648
145.533112 11.4406
146.949524 6.669445
147.07988 907.05072
147.116302 426.838196
147.236038 7.095238
147.292572 17.48702
147.356003 11.13043
147.55455 10.69253
147.563004 14.91177
147.655991 3.355392
148.17572 1.741667
148.239685 2.449074
148.897919 7.481667
149.095383 509.588501
149.147781 2.337963
149.156265 1.671296
149.177505 6.668011
149.475128 13.00113
149.666412 2.053571
152.059097 201.822205
152.304016 4.675
152.365417 3.266667
152.415756 10.05235
152.694962 5.121212
152.948654 35.34127
153.069717 921.391113
153.120834 4.366667
153.132019 6.510417
153.141098 6.080883
153.240219 6.208333
153.272705 17.870939
153.987335 6.05
154.077728 311.491211
154.121185 7.667929
154.153 9.523809
154.281113 15.43622
154.336243 8.777778
154.376114 6.012931
154.461166 20.530701
154.697906 8.370614
154.808655 5.454545
155.046417 26.22138
155.085251 1446.323975
155.143265 3.291667
155.163803 15.35299
155.173172 5.598684
155.25914 8.102273
155.345856 13.02315
155.354782 10.0303
155.36824 6.00926
155.441269 9.679598
155.461456 17.703831
155.476639 5.333333
155.501984 2.00463
155.831879 9.599999
156.127365 5.522727
156.198608 11.375
156.388245 17.0026
156.436096 3.333333
156.723404 4.408333
157.06282 371.691803
157.100647 377.328186
157.146149 10.20988
157.250824 5.357143
157.294449 5.371913
157.338089 4.083333
157.364273 9.075
157.393051 26.08877
157.449402 4.366667
157.578186 2.678571
157.617493 10.44537
157.70636 28.01667
157.827698 12.00397
158.108124 181.701797
158.180786 3.027778
158.674026 2.125
159.080704 593.128723
159.116608 331.10379
159.312286 9.012931
159.458755 4.387821
159.510254 3.857143
159.659363 7.078432
159.892426 14.05952
160.12204 122.602303
160.143265 1.666667
160.47348 21.94574
160.729446 6.25
161.05423 17.008659
161.0961 383.195312
161.131256 91.133133
161.722961 5.875
161.948486 5.564815
163.075577 71.007294
163.107361 30.3631
164.063492 13.92014
164.118256 93.651627
164.249435 3.75
164.468506 11.2
164.527969 5.041667
164.975983 14.14969
165.06926 668.978577
165.138672 10.00219
165.183487 8.560185
165.214783 4.734848
165.277313 15.3913
165.371323 5.682971
165.38028 12.33435
165.527847 9.349638
165.661972 12.4422
165.711502 9.00119
165.761307 7.016666
165.964706 21.79594
166.077194 397.528015
166.13324 8.74473
166.150665 2.669872
166.837341 4.107143
166.950607 16.156481
167.085083 659.784973
167.143173 3.727941
167.180679 4.013889
167.287125 2.669444
167.321136 10.25926
167.372467 6.011905
167.399643 6.401515
167.615753 10.12297
167.737381 6.075617
168.066452 1.671296
168.091675 356.472809
168.187607 7.906746
168.258911 3.185606
168.287521 9.675813
168.314606 10.29167
168.363525 3.518939
168.418533 16.08003
168.712006 2.333333
169.062271 82.41935
169.100067 436.537598
169.358795 2.0
169.476959 12.675
169.52182 9.380208
169.753113 8.022223
170.077759 43.414532
170.175476 7.481667
171.079987 222.354202
171.115479 583.828674
171.156372 6.783046
171.282761 27.714291
171.592514 4.592948
171.958344 8.338235
172.086777 141.492401
172.455948 8.391666
173.095779 272.871094
173.129684 185.760193
173.183121 1.671296
173.270111 10.47704
173.297623 8.745155
173.384628 10.64015
173.476242 4.408333
173.837509 6.375
174.228516 5.005952
174.261749 86.933891
175.109222 194.569504
175.346161 6.520061
175.816345 3.003788
175.900345 15.71014
176.074768 6.348333
177.070847 32.130161
178.075638 56.236259
178.242981 7.935
178.274399 6.927469
179.083847 427.835785
179.109039 4.335784
179.143967 5.075
179.330276 4.120098
179.428146 5.011905
179.535309 13.66964
179.630524 7.969086
179.754471 11.33333
179.976089 2.583333
180.093933 507.196991
180.127792 8.024224
180.230835 25.04006
180.269165 11.20119
180.342667 1.720238
180.405716 2.958333
180.479553 6.533333
180.875626 8.740741
181.065689 159.128204
181.152359 2.720238
181.305817 5.388889
181.344803 17.037359
181.465622 4.340278
181.634369 7.763095
181.892014 7.00463
182.070129 272.52359
182.11174 122.811501
182.446396 4.71627
183.115829 362.547791
183.237869 22.97543
183.410995 10.40833
183.792786 7.017544
183.858826 9.378703
184.086212 140.700104
184.302948 12.675
184.883881 4.011905
185.096085 85.247963
185.132935 66.76281
185.499329 4.010417
185.570648 13.39881
186.069107 7.111111
186.102127 50.66032
186.415222 4.833333
187.11058 135.762207
187.14711 7.012931
188.118362 82.743584
189.065186 2.700758
189.093506 40.294899
190.003922 12.7971
190.081467 73.789253
190.147339 3.440476
190.296555 9.354167
190.354279 11.75
191.084885 230.388901
191.401932 5.702587
191.772858 5.120098
191.88353 3.666667
192.091614 345.471985
192.549133 7.001126
192.692444 7.494048
193.06601 52.67017
193.259415 4.333333
193.419037 3.34375
194.106094 79.120667
194.547989 6.710784
194.670731 6.160088
195.055054 9.25641
195.079758 151.742294
195.115814 218.229294
195.145325 1.675
196.337769 7.041667
196.402695 5.002778
197.093597 57.355091
197.132217 143.984604
197.169769 7.25
198.103485 42.852741
199.071777 17.014999
199.114441 29.1625
199.150558 28.742121
199.838593 3.003205
200.048721 5.669445
200.089676 11.14682
200.335602 13.82828
200.636078 11.7902
200.847809 5.453432
201.095505 48.445831
201.125931 616.789917
201.161652 15.73782
201.185898 3.375
201.203171 2.005952
201.316681 11.01852
201.467911 4.6
202.076065 112.7817
202.877014 5.958333
203.087143 254.280701
203.498566 1.777778
203.688004 11.32003
204.249435 8.240196
204.320267 5.041667
205.100372 192.390106
205.268845 4.15
205.344711 11.06368
205.366455 17.307859
205.763672 2.347222
206.064896 38.223679
207.08136 105.1698
207.115768 88.409317
208.125031 65.002861
208.28978 11.96078
208.346695 6.382936
209.090958 22.69927
209.134888 39.385071
209.150589 43.415989
210.143143 29.37191
210.617599 10.02381
211.072433 45.495209
211.152817 24.067221
213.125214 87.001106
213.164124 51.31144
213.186783 15.00278
215.14212 103.275497
216.699173 6.35307
217.09964 33.435379
217.854752 22.40238
218.106094 81.236679
218.537689 14.00833
219.083389 13.34028
219.113693 113.186203
219.169464 12.3913
219.437332 12.375
220.090363 40.465069
221.091431 52.101719
221.897354 6.011364
222.220245 9.5625
223.10762 41.739658
223.151932 58.013378
225.127777 38.791672
225.159576 20.11022
227.106415 8.926282
227.145737 15.43561
229.101532 37.473961
229.154602 40.117359
229.265274 3.700758
230.104584 83.01664
230.180481 2.520833
231.115234 34.474079
231.258987 11.075
235.105927 11.36232
235.139481 20.135639
236.116791 54.75502
237.128082 46.68018
239.150696 27.01042
241.690659 6.510965
245.459595 5.166667
247.145554 16.02899
251.138245 10.68632
251.668259 9.490196
252.150055 7.866667
253.156189 25.33532
254.158936 20.334089
264.883575 13.7129
315.31427 4.225
481.857758 14.67014
744.357849 2.337121
871.779724 3.010417
1416.115112 4.677083
