>compound MLS000028316-01!Dazoxiben
>formula C12H12N2O3
>ionization [M+H]+
>parentmass 233.091156
#inchi InChI=1S/C12H12N2O3/c15-12(16)10-1-3-11(4-2-10)17-8-7-14-6-5-13-9-14/h1-6,9H,7-8H2,(H,15,16)
#inchikey XQGZSYKGWHUSDH
#origInchi InChI=1S/C12H12N2O3.ClH/c15-12(16)10-1-3-11(4-2-10)17-8-7-14-6-5-13-9-14;/h1-6,9H,7-8H2,(H,15,16);1H
#Ion_Source LC-ESI
#Instrument qTof
#Compound_Source NIH Pharmacologically Active Library
#PI Dorrestein
#Data_Collector VP/LMS
#Scan -1
#Precursor_MZ 233.094
#ExactMass 232.085
#Charge 1
#CAS_Number N/A
#Pubmed_ID N/A
#Smiles OC(=O)c1ccc(OCCn2ccnc2)cc1.Cl
#INCHI_AUX N/A
#Library_Class 1
#SpectrumID CCMSLIB00000084804
#IonMode Positive
#UpdateWorkflowName UPDATE-SINGLE-ANNOTATED-GOLD
#LibraryQualityString Gold
#TaskID d252d724072548979f1f6f1ced849daf
##Scan# 1144
#SpectrumFile p3-A11_GA11_01_18232.mzXML
#LibraryName Pharm_Active_Library.mgf
#MQScore -1
#Organism Pharm_Active_Library
#TIC_Query 0
#RT_Query -1
#MZErrorPPM -1
#SharedPeaks 0
#MassDiff 0
#LibMZ -1
#SpecMZ 233.094
#SpecCharge 0
#internalFilename spec-00000.mgf

>collision 10
44.907825 124.0
45.456345 168.0
45.956909 184.0
46.395115 148.0
47.083633 152.0
47.496983 216.0
47.775845 192.0
47.903873 200.0
48.201889 160.0
48.753429 216.0
51.23999 176.0
52.315536 152.0
52.541798 148.0
52.934944 196.0
53.792767 132.0
54.516312 220.0
55.983856 120.0
57.647564 224.0
58.321995 204.0
58.83688 196.0
58.864361 160.0
58.876579 184.0
60.013664 176.0
60.090782 164.0
60.438427 160.0
60.452354 260.0
61.392212 92.0
61.676365 116.0
62.545349 156.0
63.728279 172.0
63.925449 128.0
65.786324 212.0
66.219666 68.0
66.659309 144.0
67.518433 144.0
68.13475 264.0
71.239876 192.0
71.362556 212.0
71.628456 184.0
72.46978 212.0
73.710205 240.0
74.816483 136.0
75.723015 224.0
76.257393 172.0
76.840744 216.0
77.069473 180.0
77.548965 152.0
78.417213 96.0
79.513756 196.0
81.8881 136.0
82.04306 168.0
82.921539 176.0
85.481972 164.0
85.837494 144.0
86.515564 236.0
87.205597 240.0
87.639191 208.0
90.025238 256.0
90.35791 60.0
90.774605 52.0
91.025085 176.0
91.054626 984.0
92.05719 152.0
93.031746 200.0
93.076218 224.0
93.897614 40.0
94.035416 172.0
94.048103 184.0
94.127258 40.0
94.947762 84.0
95.061478 2292.0
95.079689 120.0
95.108803 204.0
95.132095 36.0
95.902374 216.0
96.067223 1324.0
96.10714 168.0
96.200821 40.0
96.865685 124.0
97.067551 164.0
98.034698 80.0
99.758636 124.0
101.004929 164.0
101.265129 164.0
101.36129 172.0
101.770477 132.0
102.048264 288.0
102.260971 104.0
103.017113 372.0
103.054962 1164.0
103.285957 108.0
103.800369 28.0
104.910469 228.0
105.02874 428.0
106.685349 156.0
107.597984 164.0
108.050591 140.0
109.026955 176.0
109.063812 432.0
109.083794 160.0
109.855896 208.0
110.03035 176.0
110.677246 120.0
111.600449 128.0
112.628853 156.0
119.048828 980.0
119.674362 36.0
120.051865 196.0
120.708618 208.0
121.008377 180.0
121.03067 2552.0
121.064163 640.0
121.492714 36.0
122.029266 116.0
122.404831 56.0
122.854446 72.0
123.046448 184.0
126.628815 144.0
128.054993 156.0
128.614151 96.0
129.99469 144.0
132.544052 184.0
132.92009 96.0
134.775986 136.0
136.928726 132.0
137.060837 2120.0
137.122101 104.0
137.15239 68.0
137.294617 276.0
137.453232 84.0
138.066452 276.0
138.650543 140.0
138.971786 192.0
139.038406 184.0
139.152512 100.0
139.269928 52.0
140.484528 172.0
142.347198 92.0
142.632278 176.0
143.823242 180.0
146.97908 196.0
147.042343 460.0
147.776428 92.0
148.385391 200.0
148.721512 168.0
149.033356 280.0
149.25354 64.0
156.114517 180.0
157.09584 124.0
162.959396 144.0
164.967606 200.0
165.054489 460.0
165.077545 184.0
168.364334 124.0
172.043594 168.0
172.200256 104.0
178.34201 176.0
179.249512 180.0
183.737885 40.0
188.068817 128.0
189.058167 184.0
189.110168 148.0
196.209564 124.0
197.799057 180.0
203.065231 56.0
209.277817 104.0
214.734482 140.0
215.02623 132.0
215.080215 2124.0
215.820786 48.0
216.084381 168.0
216.203979 72.0
217.087708 168.0
217.599228 104.0
219.856873 40.0
222.114319 156.0
231.492493 188.0
231.734802 124.0
232.162201 104.0
233.021194 116.0
233.091156 2420.0
233.878738 64.0
234.030945 164.0
234.093124 428.0
234.323334 44.0
234.963562 120.0
235.006271 64.0
235.088074 168.0
235.421402 72.0
236.176285 76.0
236.261932 116.0
236.332306 68.0
248.321472 76.0
287.310577 40.0
326.95694 68.0
357.162933 100.0
370.104279 48.0
372.121002 88.0
389.229218 104.0
395.216522 76.0
415.864044 40.0
494.255005 60.0
700.140198 104.0
765.631409 56.0
791.190247 188.0
807.050415 168.0
874.788269 160.0
885.114197 92.0
903.696777 192.0
910.398193 184.0
944.582581 124.0
950.574341 128.0
986.354126 120.0
996.600464 148.0
996.776428 156.0
1017.817078 196.0
1026.356079 144.0
1042.911133 220.0
1055.714966 156.0
1060.745605 192.0
1066.555054 156.0
1067.049194 180.0
1069.293335 220.0
1102.293335 168.0
1109.308716 180.0
1143.097534 100.0
1171.970337 200.0
1172.07251 192.0
1174.956543 84.0
1197.39856 200.0
1201.348022 148.0
1211.427002 148.0
1215.406494 220.0
1217.800537 160.0
1226.854248 188.0
1228.779053 180.0
1247.119019 184.0
1250.248657 144.0
1267.067871 208.0
1268.109497 124.0
1276.259033 168.0
1281.262329 132.0
1288.817871 156.0
1300.576904 188.0
1300.856812 140.0
1303.111816 184.0
1319.674316 188.0
1325.059082 176.0
1349.550171 192.0
1351.093384 208.0
1352.908325 176.0
1367.721558 164.0
1369.142578 180.0
1370.917969 136.0
1380.684692 152.0
1388.868652 148.0
1391.480835 248.0
1391.636719 60.0
1392.63916 168.0
1396.652832 52.0
1416.62793 200.0
1423.415405 164.0
1424.091309 132.0
1424.301636 116.0
1435.952759 192.0
1436.918335 136.0
1442.453735 200.0
1442.831787 160.0
1451.660156 196.0
1451.720825 148.0
1452.97229 184.0
1456.464233 184.0
1461.017578 204.0
1470.969849 184.0
1486.1073 128.0
1490.06897 168.0
1492.151733 92.0
1504.979858 92.0
