>compound MLS002207117-01!2-Hydroxy-3-isopropyl-6-methylbenzoic acid548-51-6
>formula C11H14O3
>ionization [M+H]+
>parentmass 195.1015707600905
#inchi InChI=1S/C11H14O3/c1-6(2)8-5-4-7(3)9(10(8)12)11(13)14/h4-6,12H,1-3H3,(H,13,14)
#inchikey FNWNGQGTFICQJU
#Ion_Source LC-ESI
#Instrument qTof
#Compound_Source NIH Pharmacologically Active Library
#PI Dorrestein
#Data_Collector VP/LMS
#Scan -1
#Precursor_MZ 195.105
#ExactMass 194.094
#Charge 1
#CAS_Number N/A
#Pubmed_ID N/A
#Smiles CC(C)c1ccc(C)c(C(=O)O)c1O
#INCHI_AUX N/A
#Library_Class 3
#SpectrumID CCMSLIB00000085476
#IonMode Positive
#UpdateWorkflowName UPDATE-SINGLE-ANNOTATED-BRONZE
#LibraryQualityString Bronze
#TaskID d252d724072548979f1f6f1ced849daf
##Scan# 2283
#SpectrumFile p4-B05_GB5_01_18341.mzXML
#LibraryName Pharm_Active_Library.mgf
#MQScore -1
#Organism Pharm_Active_Library
#TIC_Query 0
#RT_Query -1
#MZErrorPPM -1
#SharedPeaks 0
#MassDiff 0
#LibMZ -1
#SpecMZ 195.105
#SpecCharge 0
#internalFilename spec-00000.mgf

>collision 10
45.949821 68.0
52.596085 208.0
53.024204 144.0
60.374237 148.0
71.316132 168.0
72.650116 160.0
72.955788 204.0
74.162621 52.0
74.330681 172.0
74.526428 124.0
80.311378 92.0
86.697571 160.0
87.553986 244.0
87.844749 216.0
88.787422 172.0
89.200478 76.0
90.112587 32.0
91.055229 364.0
91.61895 88.0
92.187531 180.0
92.394028 76.0
93.072502 140.0
95.050827 184.0
95.05542 144.0
96.054878 176.0
97.637444 140.0
101.738724 256.0
103.058548 384.0
105.070572 1092.0
106.076019 192.0
107.051926 240.0
107.068291 76.0
107.093117 164.0
108.208214 176.0
111.00444 140.0
115.055115 168.0
115.073441 96.0
115.612083 160.0
116.00618 72.0
116.063354 456.0
119.046234 200.0
119.067947 80.0
121.027374 440.0
121.070892 328.0
121.100616 112.0
122.059624 72.0
122.455742 36.0
123.709915 148.0
128.061981 188.0
128.406815 240.0
128.438385 140.0
131.049362 168.0
131.087769 168.0
133.067322 152.0
134.071945 196.0
135.857391 244.0
140.900208 192.0
144.059814 152.0
144.542755 204.0
145.002548 124.0
149.061676 200.0
151.232162 56.0
156.968781 164.0
160.078522 180.0
161.016632 164.0
161.060562 280.0
161.727081 188.0
162.061356 104.0
167.074509 152.0
176.074219 140.0
177.047424 240.0
177.090698 1876.0
177.163971 40.0
177.853409 64.0
178.093887 140.0
178.291626 36.0
178.866104 56.0
179.382874 124.0
181.0849 172.0
184.537399 88.0
185.541824 48.0
428.673401 44.0
746.761902 104.0
764.344482 184.0
796.928955 180.0
797.041321 48.0
937.160583 184.0
1142.702393 120.0
1171.917725 160.0
1188.326782 184.0
1195.644897 200.0
1298.304443 212.0
1336.714478 172.0
1337.238525 136.0
1379.052734 212.0
1397.004395 96.0
1441.072754 188.0
1459.984985 200.0
1481.394409 40.0
1498.541626 140.0
1503.700317 152.0
