>compound 2-heptyl-3-hydroxy 4-quinolone
>formula C16H21NO2 
>ionization [M+H]+
>parentmass 260.16450536409053
#inchi InChI=1S/C16H21NO2/c1-2-3-4-5-6-11-14-16(19)15(18)12-9-7-8-10-13(12)17-14/h7-10,16,19H,2-6,11H2,1H3
#inchikey IRNQEHWHRAZAPL
#Ion_Source DI-ESI
#Instrument Ion Trap
#Compound_Source Commercial
#PI Dorrestein
#Data_Collector WMoree
#Scan -1
#Precursor_MZ 260.0
#ExactMass 259.157
#Charge 1
#CAS_Number 108985-27-9
#Pubmed_ID N/A
#Smiles N/A
#INCHI_AUX N/A
#Library_Class 1
#SpectrumID CCMSLIB00000006838
#IonMode Positive
#UpdateWorkflowName UPDATE-SINGLE-ANNOTATED-GOLD
#LibraryQualityString Gold
#TaskID 92339c9ea14140fe82815c02988e5abb
##Scan# 1
#SpectrumFile PQS_260_MS2_commercial.mzXML
#LibraryName gnps_library.mgf
#MQScore -1
#Organism gnps_library
#TIC_Query 0
#RT_Query -1
#MZErrorPPM -1
#SharedPeaks 0
#MassDiff 0
#LibMZ -1
#SpecMZ 260
#SpecCharge 0
#internalFilename spec-00000.mgf

>collision 10
76.921082 139.28653
78.500832 15.560312
79.035797 223.343262
81.125328 43.691204
82.0 1.123638
83.07309 82.338196
84.272728 1.355599
85.035408 21.5508
89.183609 5.855947
90.990891 235.740723
91.98172 43.271145
92.991508 467.570984
94.048447 127.470192
95.139122 62.327255
96.089661 30.077518
97.02301 88.747543
98.080269 5.139104
100.181816 1.559379
101.636368 1.244398
102.971901 277.987427
103.988815 324.009979
104.977562 1406.432251
105.999947 2621.253174
107.064255 51.409721
109.037315 205.909378
109.973442 23.959208
111.037415 22.743975
112.586571 2.390412
113.136444 12.701059
113.727272 1.072872
114.272728 1.206637
114.984772 98.160423
115.984818 1004.910278
116.990433 512.679443
118.00325 1699.069092
119.016556 334.956116
119.976852 687.880981
120.996338 18.418434
122.016769 33.861794
122.988686 6.177514
125.020576 12.211632
126.025047 41.572243
126.957169 49.521061
127.967224 253.931458
129.042938 232.163559
129.991241 27250.533203
130.993149 539.069153
131.99025 2699.28418
132.984039 2626.509766
133.980743 13234.896484
135.048599 19.170456
136.196396 9.823797
137.051727 7.116705
137.72728 1.408521
139.010895 5.497962
139.94281 12.694659
140.955246 74.001541
141.986343 336.758575
143.037994 301.068298
144.005447 5751.580566
145.033997 184.036987
145.975815 13464.262695
146.989578 14576.904297
147.988358 1596.578003
153.009232 5.081222
154.048462 61.846577
155.08783 84.999382
156.009491 367.861267
157.007736 201.40773
157.978546 10258.529297
158.972656 6197.568359
159.989319 2998.455078
161.007584 570.104553
161.982513 46754.242188
162.76474 11.866321
166.124161 29.453125
166.974152 71.167671
168.092102 374.176941
169.020554 102.181084
169.982437 935.840088
171.053665 114.131401
172.001312 16399.349609
173.002441 1066.026489
174.022369 14177.597656
174.976913 1095780.25
175.977692 73473.0625
176.796432 91.401245
178.09021 11.1935
179.090912 1.033955
180.04924 53.294937
181.078506 88.189354
181.989304 168.872131
182.995712 177.674103
184.004745 1185.253784
185.010712 406.747467
186.006271 1979.237305
187.082291 90.730156
187.971268 68730.914062
188.986725 29551.605469
189.998108 36608.566406
190.745605 13.794259
192.117584 34.797794
193.947464 18.608061
195.101974 56.008881
195.925507 108.772835
197.082535 49.466312
198.000107 726.55719
199.024078 187.981277
200.007462 7265.64209
201.007629 83.711792
201.998871 14108.833984
203.013519 510.011047
204.020462 15107.399414
204.811966 4.799881
208.087433 16.484417
209.015549 14.814508
210.109787 9.66322
211.136475 14.765598
212.079025 382.630798
213.029144 63.840595
214.049301 4885.890625
215.017822 35.066349
216.024689 2223.560791
217.067719 41.64455
218.026825 2770.449707
221.0 1.283846
222.15274 15.260348
224.059143 173.619156
225.871429 14.185499
228.035187 381.141632
229.084259 8.629934
230.062897 506.356079
231.082397 519.976929
232.071182 3774.813721
232.72728 2.343973
233.272736 1.104012
240.050659 120.653709
242.078903 3901.31665
244.112793 108.286301
245.363647 1.23734
249.673798 2.762846
256.042572 2.936401
258.05954 1946.029541
258.727264 2.822798
259.509491 524.934692
260.08728 83989.304688
260.781647 68.451347
317.321411 2.446017
