>compound Glipizide
>formula C21H27N5O4S 
>ionization [M+H]+
>parentmass 446.187
#inchi InChI=1S/C21H27N5O4S/c1-15-13-24-19(14-23-15)20(27)22-12-11-16-7-9-18(10-8-16)31(29,30)26-21(28)25-17-5-3-2-4-6-17/h7-10,13-14,17H,2-6,11-12H2,1H3,(H,22,27)(H2,25,26,28)
#inchikey ZJJXGWJIGJFDTL
#Ion_Source LC-ESI
#Instrument qTof
#Compound_Source Isolated
#PI Sirenas
#Data_Collector Ed Esquenazi 
#Scan -1
#Precursor_MZ 446.187
#ExactMass 0.0
#Charge 1
#CAS_Number N/A
#Pubmed_ID N/A
#Smiles N/A
#INCHI_AUX N/A
#Library_Class 3
#SpectrumID CCMSLIB00000006555
#IonMode Positive
#UpdateWorkflowName UPDATE-SINGLE-ANNOTATED-BRONZE
#LibraryQualityString Bronze
#TaskID d19310cd93df49b68e9fcbec27720eb5
##Scan# 3
#SpectrumFile Glipizide.mgf
#LibraryName fda_library.mgf
#MQScore -1
#Organism fda_library
#TIC_Query 0
#RT_Query -1
#MZErrorPPM -1
#SharedPeaks 0
#MassDiff 0
#LibMZ -1
#SpecMZ 446.187
#SpecCharge 0
#internalFilename spec-00000.mgf

>collision 10
100.111969 1720.512939
100.350212 18.56522
100.485794 23.37879
102.049812 56.650761
102.514458 19.811831
102.530319 18.96702
102.583023 20.427219
102.607895 41.955681
102.658005 33.05574
102.773674 20.466669
103.054626 18077.660156
103.098022 66.457108
103.19146 78.990967
103.217346 37.778709
103.233856 22.279449
103.260216 27.592131
103.282181 26.37121
103.29953 35.337872
103.317001 38.825432
103.383324 52.551262
103.467003 31.434179
103.492424 23.517481
103.563515 19.94697
103.602104 28.285339
103.936493 31.14035
104.893188 21.0
106.067101 29.632721
107.049004 1463.391968
109.00795 26.01071
111.02829 35.640629
111.052361 148.976593
111.691483 24.54167
117.061317 65.732788
118.040176 48.34967
118.065674 28.42848
119.048409 390.640503
119.07238 521.450317
119.195854 37.334801
119.388962 21.747129
120.056038 1320.869019
120.079453 265.573395
120.430443 29.511271
120.489914 23.92605
121.039337 5391.936035
121.063553 793.594177
121.104492 23.972219
121.182266 21.52355
121.289848 20.374861
121.304031 32.01181
121.374397 22.09145
122.042946 46.415001
128.051682 95.888077
128.181107 26.14352
131.059296 521.609619
131.262283 28.76087
131.321167 19.066669
131.450378 23.564831
136.05072 81.882088
136.072449 25.37398
138.035522 85.811249
139.020676 786.851013
139.047318 39.46558
139.388 25.55769
142.05925 64.296471
146.057434 53.217781
147.06694 19.72727
148.020386 755.40802
148.449249 20.294941
148.616043 22.71627
149.002441 163.389496
149.056702 55.003971
150.066055 3406.666016
150.287094 39.029629
151.856323 18.722219
155.017609 182.671402
165.996597 19.827669
166.031372 833.076416
166.061783 20.384029
166.391266 26.706369
167.015778 6126.771973
167.153748 33.53756
167.196014 45.334541
167.23497 28.509121
167.287521 34.438221
167.312088 27.129351
167.444534 21.43047
167.469772 44.855511
167.578232 18.93692
167.654785 40.797619
168.423431 24.808201
169.07225 30.380871
180.06665 85.493156
182.079773 53.432919
183.037155 20.335649
183.090286 367.696106
184.042542 447.822693
184.364258 29.049601
184.428329 19.080879
185.020096 47.143959
195.089676 220.171402
197.102692 41.796749
198.033142 60.509769
199.041519 37.851891
205.53244 21.11574
207.074799 43.096889
208.818054 28.543209
209.090302 50.54826
210.020081 248.407806
211.084366 663.11792
220.085892 86.03788
220.143555 18.482759
221.091156 84.038582
222.102127 981.356873
222.317154 23.783159
223.085281 169.618301
223.671631 23.680269
231.77594 22.377729
237.177994 18.13286
238.097351 583.434082
238.274902 29.319771
238.824036 19.759609
239.079636 42.427219
240.112778 1061.010986
240.54422 21.35507
241.041504 63.83408
243.055801 54.068039
255.09642 65.144371
256.107239 683.49939
258.068756 277.568207
268.052429 27.191481
286.063202 1779.692017
286.296539 24.19684
286.392731 18.20056
286.589386 19.987749
304.077789 219.223297
321.102997 98.470177
347.079681 79.564789
