>compound Docetaxel
>formula C43H53NO14 
>ionization [M+H]+
>parentmass 808.3538818280905
#inchi InChI=1S/C43H53NO14/c1-22-26(55-37(51)32(48)30(24-15-11-9-12-16-24)44-38(52)58-39(3,4)5)20-43(53)35(56-36(50)25-17-13-10-14-18-25)33-41(8,34(49)31(47)29(22)40(43,6)7)27(46)19-28-42(33,21-54-28)57-23(2)45/h9-18,26-28,30-33,35,46-48,53H,19-21H2,1-8H3,(H,44,52)/t26-,27-,28+,30-,31+,32+,33-,35-,41+,42-,43+/m0/s1
#inchikey ZDZOTLJHXYCWBA
#Ion_Source LC-ESI
#Instrument qTof
#Compound_Source Isolated
#PI Sirenas
#Data_Collector Ed Esquenazi 
#Scan -1
#Precursor_MZ 808.35
#ExactMass 0.0
#Charge 1
#CAS_Number N/A
#Pubmed_ID N/A
#Smiles N/A
#INCHI_AUX N/A
#Library_Class 3
#SpectrumID CCMSLIB00000005880
#IonMode Positive
#UpdateWorkflowName UPDATE-SINGLE-ANNOTATED-BRONZE
#LibraryQualityString Bronze
#TaskID d19310cd93df49b68e9fcbec27720eb5
##Scan# 1
#SpectrumFile Docetaxel.mgf
#LibraryName fda_library.mgf
#MQScore -1
#Organism fda_library
#TIC_Query 0
#RT_Query -1
#MZErrorPPM -1
#SharedPeaks 0
#MassDiff 0
#LibMZ -1
#SpecMZ 808.35
#SpecCharge 0
#internalFilename spec-00000.mgf

>collision 10
105.006172 3.041667
105.032967 408.532898
105.07901 5.604167
105.233871 3.416667
105.483612 9.490196
106.151833 7.783046
107.045082 19.00321
107.062111 6.59375
107.086212 85.51136
109.060867 15.35417
111.042664 86.751137
116.91143 21.260851
119.049324 27.008329
121.064934 291.922394
121.100105 43.67284
121.195808 2.695513
122.509186 15.11538
125.095116 50.189919
131.425766 1.666667
132.320068 6.367424
133.061172 31.346701
133.099319 174.670395
133.641953 4.761905
135.078217 100.175201
135.101639 6.777778
135.196854 4.42803
136.075302 89.306999
136.288452 5.458333
136.45993 5.125
137.096725 36.097221
141.091522 22.280411
143.088638 30.68152
147.039627 26.42544
148.057739 21.64286
148.404724 9.240384
149.0578 44.81292
150.399002 11.13286
150.604752 8.284091
150.829987 6.856061
150.937042 4.033333
151.071503 30.351191
151.114105 74.474998
151.220718 3.388889
157.097717 11.00154
159.080612 61.160721
159.402863 7.190476
161.092056 127.7136
163.070404 27.34
163.258041 2.075
163.33754 4.898148
163.559479 7.372807
165.051407 156.403397
165.089188 16.426769
167.068237 65.510483
167.08371 34.14674
171.077118 14.74167
174.100204 85.921463
175.077438 20.293699
177.050598 98.531487
177.087997 94.445976
177.290375 6.840517
179.065872 8.027778
179.102005 37.945599
179.176407 19.02541
179.38562 7.001667
179.540161 4.963235
179.68071 19.710939
180.063416 285.472198
180.284775 4.017857
180.781494 11.0
180.804825 10.93333
182.043869 34.476669
182.079178 2030.546997
182.13858 15.42251
182.154602 7.682539
182.168381 4.054824
182.178146 7.088768
182.281387 25.633341
182.304886 8.102273
182.324417 8.852012
182.351868 5.348333
182.39415 4.416667
182.4785 8.826923
182.656128 24.7288
182.685562 5.0
183.061584 61.48555
183.112839 26.41588
183.353867 7.407407
185.79277 10.41667
187.072495 97.521263
189.088715 68.333366
191.09845 82.123734
192.041992 9.078431
192.17218 6.361111
194.727737 5.333333
195.062607 22.786381
199.070938 52.917702
199.119827 1.777778
199.913254 8.518678
200.9263 7.025641
201.089249 11.14682
201.124023 30.355499
203.142334 15.18947
205.508606 7.486111
205.718445 8.755208
207.063583 152.498596
207.119171 89.468086
208.058868 298.845886
208.20549 8.920045
208.221008 16.52301
208.426407 2.333333
208.687668 6.710784
209.076035 26.48214
209.145233 9.342949
209.797333 12.875
210.099411 21.73292
213.071457 51.40057
213.12236 117.334297
215.105179 28.67045
215.139847 53.91975
219.287247 4.674242
224.746094 4.008333
225.053833 8.691667
225.163635 29.788549
225.241196 4.703703
225.996765 32.773811
226.06871 2136.266113
226.113968 9.375
226.137787 2.083333
226.150665 8.399238
226.193344 38.388008
226.223846 9.122968
226.304413 15.78261
226.341064 13.26754
226.420105 4.666667
226.431824 4.75
226.464966 7.714285
226.53334 20.897301
226.558838 7.001437
226.606369 21.551331
226.65834 6.415
226.72644 10.14286
226.742264 9.010715
226.769028 28.23699
226.794861 27.12632
226.863785 14.29876
227.109497 68.422096
227.135757 56.914619
227.733307 6.685185
228.716736 28.309681
228.786896 4.011905
228.937119 5.015
229.116486 41.368641
231.093033 19.61364
231.153244 10.08654
231.994995 3.358333
233.108231 7.367424
235.105331 30.3617
235.584229 13.15188
237.161972 79.420174
238.096771 40.05085
239.090897 69.282303
239.144562 41.013889
239.795822 6.480072
241.075577 46.63414
243.315613 3.080128
245.10347 20.81649
247.139664 23.334181
247.309525 12.21894
249.12886 5.786765
251.10083 23.07626
253.08284 37.732269
253.153793 3.35
255.134399 55.145401
259.139099 27.67108
263.137756 125.244202
263.790985 4.695513
263.847412 9.102564
263.90976 4.763889
264.288574 5.37037
265.120056 70.368858
265.150726 69.542641
267.091461 19.157141
267.135437 48.456299
267.493622 5.030303
269.113251 342.099304
269.15802 16.346701
269.380249 9.671296
269.573151 6.190476
269.883087 19.67374
269.947021 9.906746
270.977051 5.041667
271.097931 60.758121
273.139404 12.33333
279.570618 6.740942
281.101715 4.734848
281.152313 318.099792
281.900665 3.36218
282.131104 112.917297
282.325012 16.8848
282.574615 4.694444
284.532959 1.833333
284.730591 16.220751
285.109314 74.770233
285.144257 73.862213
285.434448 8.38313
285.763702 8.0
286.102997 348.7966
286.506653 14.38043
286.622955 2.722222
287.077179 16.65642
287.125092 312.917297
287.772583 7.2
288.838257 2.666667
291.131104 164.584503
291.354065 2.669872
292.199188 16.880051
294.124115 45.671501
294.336945 16.56818
295.220886 11.14682
297.143188 139.156097
297.226593 1.671296
298.234955 2.666667
299.160522 217.248093
299.419678 4.340278
299.528503 13.58731
301.174805 46.978821
303.128967 43.911362
307.467255 4.335318
309.144196 776.369812
309.464539 29.203239
309.48996 6.583333
309.816589 14.87083
309.845367 12.675
309.94635 17.05357
310.221069 9.25641
310.592316 12.51724
310.623138 12.5
311.118073 30.23
312.877167 5.394608
315.152039 9.04537
317.173431 25.79167
319.148865 41.03373
321.291626 17.64583
325.063324 22.881201
325.098206 6.813406
325.192444 5.480072
325.223816 6.001667
325.292816 5.371913
325.318329 8.022059
325.468933 2.041667
327.064972 19.284189
327.155457 1842.19104
327.231293 5.420834
327.259674 2.367424
327.284882 11.78667
327.385529 6.34543
327.405884 22.55147
327.429382 12.68654
327.518219 2.341667
327.61496 38.5634
327.763458 31.67252
327.958649 3.010417
328.028076 4.670455
328.110535 66.45578
328.130737 11.40789
328.310638 4.927083
328.46283 3.002778
328.51001 37.660381
328.969025 13.15705
329.135925 99.720543
330.093201 381.925598
330.186401 8.102273
330.636963 36.890148
330.889648 8.148334
340.525787 15.21774
343.716766 2.782408
345.166718 892.118286
345.234741 4.416667
345.300323 16.53178
345.338379 22.75482
345.396393 26.357349
345.558014 2.695513
345.698059 13.82372
345.732635 6.04529
346.484741 14.96333
347.143555 88.262817
347.416565 7.242816
347.570251 15.04762
347.980286 7.013889
351.158722 14.18702
359.177094 52.296478
363.175995 121.307098
365.170013 12.20833
365.509338 3.483333
368.884735 9.259408
369.161377 102.830399
370.060181 11.70525
370.678101 2.520833
377.182953 80.895111
377.269409 1.666667
384.879486 27.606819
384.945465 8.307693
385.06665 12.13564
386.161957 11.91667
387.176178 435.053711
387.463043 6.330128
387.60968 4.005952
387.665009 6.520061
387.80011 21.96154
387.925964 17.86022
387.992401 2.761364
388.455658 9.338889
391.1409 17.361111
393.985352 6.125
403.288422 61.702782
403.411469 7.016304
405.186249 1390.777954
405.257111 9.668333
405.277313 17.48447
405.317169 7.310457
405.399506 5.157052
405.430939 18.765539
405.449036 21.716669
405.71405 12.61232
405.833405 17.174841
405.881775 6.958333
405.93573 25.03113
405.984222 10.24008
406.127106 6.333333
406.158661 4.0
406.211945 26.1346
406.639313 7.656609
407.172485 6.564103
412.139374 8.125
413.168884 42.634312
420.633606 2.354167
420.861938 3.666667
422.998566 3.669872
423.196564 323.290314
423.450867 8.148334
423.63562 12.69444
424.280823 14.9481
424.387787 10.38462
424.692444 12.58333
428.684296 7.708333
428.777924 13.12354
428.984985 2.408333
431.178253 233.422394
431.427124 5.458333
431.618256 8.714286
431.703308 34.109489
432.546478 4.763889
432.97348 13.93056
446.338409 2.482143
446.360199 4.222222
446.388031 4.734848
446.637512 2.449074
447.832794 6.510417
448.510376 2.520833
449.190979 645.046814
449.288666 2.003788
449.480408 7.74074
449.561554 9.333333
449.609192 11.91065
450.021271 9.264246
450.356842 6.629902
450.646057 8.201667
450.890411 7.853395
451.164368 47.28278
463.206238 4.037037
464.419983 3.336111
464.663269 4.083333
467.203857 418.234497
467.376709 4.483333
467.603394 4.066667
468.35675 3.380953
468.823669 5.742284
469.181519 10.79167
473.332275 4.59375
483.191711 16.61603
485.204498 14.1
488.067017 6.399193
488.951263 8.491228
491.199097 211.742004
491.469971 13.13611
491.575348 1.720238
491.624237 7.732527
491.955963 17.000561
507.209015 8.132247
507.405487 7.5625
508.228638 27.113729
509.211487 975.948792
509.282043 2.669872
509.323364 27.82262
509.415527 5.0
509.467682 17.05048
509.517609 4.694444
509.576569 16.54167
509.667328 16.039471
509.713928 6.001812
509.79248 13.00362
509.865936 4.387821
509.93988 16.299681
510.045197 3.416667
510.600555 6.932018
510.766876 13.38568
511.248047 5.703947
516.201843 21.94286
524.140625 5.666667
527.222473 1174.563965
527.335938 13.34321
527.478333 11.94707
527.52179 7.367424
527.55719 10.75
527.634888 4.083333
527.738831 6.679598
527.890747 17.047621
528.022766 15.70833
528.129089 19.686939
529.515076 11.57143
529.646179 3.266667
529.746643 2.678571
530.972473 11.74107
538.034058 8.333333
542.917664 31.680559
545.212708 19.11265
545.572937 5.088768
552.216858 39.826931
552.575317 2.683333
568.24231 55.910919
568.977417 10.10526
586.261108 163.977295
587.109802 5.688726
612.235779 53.426868
612.445068 1.708333
612.825378 11.13286
618.531677 2.449074
630.242126 165.196304
630.458679 5.335784
631.489868 15.48148
645.98584 2.520833
656.240967 15.92161
668.299377 4.722222
672.262634 31.89168
674.244812 23.231319
686.316345 41.48838
690.283936 69.596092
692.252441 63.721321
703.64978 11.7902
704.923889 2.35
708.287964 266.391205
708.354797 2.695513
709.097412 7.852564
709.143005 6.001984
709.679443 11.01014
716.260864 75.238007
717.923584 6.375
730.328308 13.35307
734.277893 162.805206
734.584595 7.458333
734.724487 6.805555
734.762512 7.969086
747.176941 54.695541
747.433105 15.5887
748.385071 4.8
752.282837 620.627502
752.416138 1.720238
752.759766 5.666667
752.845642 3.047619
752.971558 31.71195
753.305725 18.24242
753.380249 9.142858
753.702637 7.0
753.904358 17.091221
754.603088 8.854167
759.52301 15.00595
789.906921 3.041667
790.355042 13.8375
799.173279 16.000759
799.537659 7.480072
801.487854 15.71514
802.616577 72.568222
802.678284 7.383333
802.737671 4.166667
802.787598 14.00556
802.889954 22.351851
802.977844 144.069901
803.048096 102.718102
803.151611 63.005291
803.205078 82.132072
803.272339 70.14859
803.329468 17.26042
803.410522 90.013092
803.578796 37.449749
803.744629 67.705482
803.839417 55.717812
803.949768 8.009259
804.055359 45.907551
804.126343 19.22654
804.220642 24.180559
804.502747 65.489403
804.87738 11.15278
804.897461 13.79167
804.969543 34.989319
805.349365 49.157089
805.442871 7.931863
805.667542 23.91468
806.030762 69.152489
806.197083 4.482143
806.4646 11.48167
807.624023 4.166667
807.772095 11.78392
807.940186 9.363334
808.118835 28.059311
808.170837 37.14167
808.230225 12.35526
808.347534 34207.53125
808.615051 131.931
808.684387 158.005295
808.733337 97.142807
808.789856 162.394302
808.866699 202.811905
808.92804 176.445404
808.967468 363.948914
809.040771 265.281586
809.087036 48.34343
809.145508 234.551498
809.258789 152.600006
809.617493 138.714294
809.695312 233.088501
809.897705 79.894798
810.003601 88.641586
810.292358 73.197578
810.39801 60.286179
810.510193 18.81505
810.56427 54.806099
810.758972 7.136111
810.949158 21.68729
811.107544 3.375
811.265747 46.679852
811.355286 21.447861
811.649475 16.409679
811.710571 40.79958
811.888123 16.357639
811.974182 36.28616
812.078796 3.047619
812.512024 7.427083
812.565308 8.755208
812.629944 25.28299
812.931641 2.003788
813.460205 19.339279
814.138977 13.88194
814.450195 32.363739
814.814758 27.20171
814.906799 16.33877
815.089233 23.47094
815.184753 1.666667
816.357788 5.814815
816.84436 9.035714
818.953552 2.041667
821.394531 3.342592
833.935059 5.160714
838.851562 9.935
839.457947 2.336539
841.264587 8.367424
857.669922 5.061275
858.422668 5.833333
860.290161 2.367424
862.956848 4.963235
865.246094 9.347222
886.784119 9.240079
1527.927246 10.68432
