>compound Halovir A
>formula C45H83N7O9 
>ionization [M+H]+
>parentmass 866.6325036880905
#inchi InChI=1S/C45H83N7O9/c1-10-11-12-13-14-15-16-17-18-19-20-21-38(56)51-45(8,9)44(61)52-27-33(54)26-36(52)42(59)49-35(25-30(4)5)41(58)50-39(31(6)7)43(60)48-34(22-23-37(46)55)40(57)47-32(28-53)24-29(2)3/h29-36,39,53-54H,10-28H2,1-9H3,(H2,46,55)(H,47,57)(H,48,60)(H,49,59)(H,50,58)(H,51,56)/t32-,33-,34-,35-,36?,39-/m0/s1
#inchikey GRJSOZDXIUZXEW
#Ion_Source LC-ESI
#Instrument qTof
#Compound_Source Isolated
#PI Fenical-Jensen-Moore
#Data_Collector Max
#Scan -1
#Precursor_MZ 866.633
#ExactMass 865.625
#Charge 1
#CAS_Number N/A
#Pubmed_ID N/A
#Smiles N/A
#INCHI_AUX N/A
#Library_Class 1
#SpectrumID CCMSLIB00000001570
#IonMode Positive
#UpdateWorkflowName UPDATE-SINGLE-ANNOTATED-GOLD
#LibraryQualityString Gold
#TaskID d14a5843653040ba9fa2c4376f2be358
##Scan# 1
#SpectrumFile A7.mgf
#LibraryName gnps_library.mgf
#MQScore -1
#Organism gnps_library
#TIC_Query 0
#RT_Query -1
#MZErrorPPM -1
#SharedPeaks 0
#MassDiff 0
#LibMZ -1
#SpecMZ 866.633
#SpecCharge 0
#internalFilename spec-00000.mgf

>collision 10
100.112411 11.00402
101.070702 35.760559
117.101784 33.553989
118.115067 11.00521
127.082939 14.6301
128.106766 34.362831
129.115784 13.5
130.048706 33.43153
147.074997 139.311996
148.074661 17.290621
199.141861 662.190674
199.273071 10.1369
200.146164 115.082497
201.147461 26.76012
209.164017 11.50092
210.158142 161.265396
211.145203 257.849792
212.147537 34.139999
213.156387 12.52301
221.133331 10.13001
227.137863 798.226074
227.2798 13.535
228.16301 199.641098
229.156815 85.00174
230.158691 36.655621
231.156815 11.43269
238.149902 11.69504
246.143494 57.421749
246.175476 38.266441
247.14386 11.80178
268.191895 10.68285
268.262787 16.958019
296.254547 101.370003
297.254639 30.05862
298.213715 15.38095
309.222473 11.91051
310.208435 44.40139
326.205414 241.026093
327.235535 252.539597
328.241882 86.472443
329.242767 13.65282
341.21756 16.42902
343.223694 12.26184
345.245026 14.3149
346.250519 11.58438
369.203186 15.91645
403.248322 21.423491
409.307281 255.126404
410.307739 123.893204
411.302917 10.67188
443.788269 21.32012
454.25705 60.875469
455.255493 25.00806
472.275116 75.634697
473.282684 50.94009
476.968536 12.14234
522.388855 121.2621
523.386902 61.376831
535.3526 15.05672
537.349792 10.97266
553.371643 318.962189
554.373657 187.138901
554.92749 10.41942
555.378235 54.536411
571.381165 138.697006
571.989502 12.28241
572.383423 83.986023
573.395081 25.7197
604.982544 11.65817
621.455872 72.223778
622.463928 33.016441
623.447388 15.02524
646.777161 11.87521
708.540527 10.18421
848.618958 180.916107
849.627258 187.038696
850.629639 55.683731
866.630493 620.651428
866.788818 18.20154
866.890137 11.92096
867.210388 12.27687
867.514587 10.40409
867.633423 421.478302
867.847656 14.14266
868.637146 140.450394
869.485352 15.92133
869.6427 38.071129
1112.819214 32.760422
