>compound MLS000701317-01!3-allyl-5-{[5-(4-fluorophenyl)-2-furyl]methylene}-2-thioxo-1,3-thiazolidin-4-one
>formula C17H12FNO2S2
>ionization [M+H]+
>parentmass 346.0366252960905
#inchi InChI=1S/C17H12FNO2S2/c1-2-9-19-16(20)15(23-17(19)22)10-13-7-8-14(21-13)11-3-5-12(18)6-4-11/h2-8,10H,1,9H2/b15-10-
#inchikey NRYDVPWWLSZUMD
#Ion_Source LC-ESI
#Instrument qTof
#Compound_Source NIH Pharmacologically Active Library
#PI Dorrestein
#Data_Collector VP/LMS
#Scan -1
#Precursor_MZ 346.038
#ExactMass 345.029
#Charge 1
#CAS_Number N/A
#Pubmed_ID N/A
#Smiles Fc1ccc(cc1)c2ccc(/C=C/3\SC(=S)N(CC=C)C3=O)o2
#INCHI_AUX N/A
#Library_Class 3
#SpectrumID CCMSLIB00000085783
#IonMode Positive
#UpdateWorkflowName UPDATE-SINGLE-ANNOTATED-BRONZE
#LibraryQualityString Bronze
#TaskID d252d724072548979f1f6f1ced849daf
##Scan# 2902
#SpectrumFile p4-F05_GF5_01_18389.mzXML
#LibraryName Pharm_Active_Library.mgf
#MQScore -1
#Organism Pharm_Active_Library
#TIC_Query 0
#RT_Query -1
#MZErrorPPM -1
#SharedPeaks 0
#MassDiff 0
#LibMZ -1
#SpecMZ 346.038
#SpecCharge 0
#internalFilename spec-00000.mgf

>collision 10
46.278934 56.0
47.331516 152.0
49.488987 176.0
49.526798 136.0
51.945278 152.0
53.78894 272.0
55.054615 204.0
55.663265 144.0
56.335007 152.0
57.23793 128.0
59.563503 72.0
59.986687 104.0
61.179565 84.0
62.472256 128.0
62.535198 132.0
63.955021 96.0
64.278549 152.0
65.21225 168.0
65.294243 236.0
65.714691 180.0
66.395729 160.0
71.116844 216.0
71.150414 124.0
71.695419 80.0
72.425323 156.0
74.527199 156.0
75.014267 176.0
75.73484 136.0
75.951515 180.0
76.434502 172.0
77.268539 228.0
77.955902 132.0
78.593361 72.0
79.120071 192.0
79.189133 188.0
79.394722 48.0
79.721382 192.0
81.224754 160.0
82.174652 164.0
82.537712 192.0
84.312004 164.0
84.908852 176.0
87.603951 140.0
88.867813 112.0
89.247231 156.0
89.825424 232.0
90.095383 132.0
91.517876 108.0
91.754135 140.0
92.439865 164.0
94.995041 148.0
95.031776 300.0
95.068512 56.0
95.947723 184.0
98.329163 192.0
99.019913 140.0
99.023544 176.0
99.683784 152.0
100.023895 148.0
101.857605 160.0
103.054039 204.0
103.622864 176.0
105.08271 148.0
106.997017 260.0
107.679573 144.0
110.046982 268.0
111.858376 152.0
112.566795 184.0
113.033974 184.0
114.63089 200.0
115.19416 104.0
116.505249 56.0
116.668579 84.0
117.088181 116.0
118.433792 220.0
118.71772 128.0
121.858925 208.0
122.931297 148.0
122.99144 592.0
123.023804 1656.0
123.859901 132.0
124.001709 164.0
124.026093 152.0
124.676414 48.0
124.736427 80.0
124.845375 176.0
125.038925 88.0
126.05175 164.0
126.724937 112.0
127.053383 144.0
130.008255 36.0
130.124008 108.0
131.001892 204.0
132.246384 228.0
132.812347 124.0
133.042908 656.0
133.103821 228.0
134.044662 144.0
135.021194 200.0
135.836517 144.0
136.724121 192.0
138.039871 108.0
138.510315 168.0
138.992188 200.0
141.073013 96.0
141.811554 228.0
143.399277 80.0
145.247604 136.0
146.051117 1180.0
146.941254 164.0
147.059708 804.0
147.079941 136.0
148.061676 96.0
150.362854 120.0
152.00499 144.0
152.176819 148.0
152.95369 192.0
153.064468 144.0
153.140823 200.0
153.197479 84.0
154.298187 112.0
155.077957 168.0
157.046814 272.0
157.281784 176.0
158.046158 504.0
158.23175 60.0
159.056549 160.0
159.460938 52.0
159.664597 128.0
160.437637 56.0
161.030624 116.0
162.056091 188.0
162.242737 76.0
163.006729 172.0
163.052475 200.0
164.006943 188.0
165.017883 192.0
165.138077 60.0
166.866501 136.0
167.123703 164.0
167.193192 44.0
167.963577 116.0
169.333511 92.0
169.639282 52.0
170.042664 148.0
170.667404 64.0
171.025787 404.0
172.058746 80.0
175.056595 480.0
175.432602 176.0
175.651474 76.0
176.060593 152.0
176.187378 172.0
177.017914 140.0
177.070877 196.0
178.028305 184.0
179.021378 224.0
179.086838 164.0
179.587936 160.0
180.894608 44.0
181.012421 156.0
181.149017 112.0
181.561798 144.0
182.870239 204.0
183.050613 100.0
183.182587 200.0
183.392776 120.0
183.940353 64.0
184.156372 48.0
184.502258 204.0
185.033539 172.0
186.047607 320.0
187.003357 112.0
187.050858 168.0
187.221161 244.0
187.67897 160.0
187.820786 212.0
188.063629 176.0
188.908005 132.0
189.015335 1760.0
189.063965 40.0
190.022842 1232.0
190.467789 88.0
191.031403 1344.0
191.069824 116.0
191.378098 60.0
192.03949 200.0
192.961853 228.0
192.98819 40.0
193.025436 136.0
193.637054 120.0
194.952103 108.0
195.38031 120.0
195.850769 104.0
195.998428 152.0
196.051376 196.0
196.115479 140.0
196.860397 196.0
197.076935 152.0
200.051239 292.0
201.016617 304.0
201.075821 140.0
201.11113 104.0
201.896591 128.0
202.023376 232.0
202.137054 120.0
203.086151 180.0
203.36705 40.0
203.827133 200.0
205.011963 800.0
206.019394 104.0
207.062256 200.0
210.086212 96.0
212.464294 168.0
213.027496 196.0
213.830048 132.0
214.036743 172.0
214.065857 140.0
215.026138 52.0
215.076553 140.0
215.533157 132.0
215.626663 108.0
215.831314 176.0
216.779755 176.0
216.976135 148.0
217.005188 192.0
217.310501 88.0
217.593353 204.0
217.636307 88.0
217.827133 156.0
217.921219 172.0
217.974106 188.0
218.017471 6824.0
218.106369 92.0
218.135757 72.0
218.156342 84.0
218.200439 84.0
218.25563 88.0
218.350403 92.0
218.385696 52.0
218.41217 88.0
218.626953 48.0
218.712311 40.0
218.880127 120.0
219.024017 1832.0
219.127548 56.0
219.248367 100.0
219.611008 116.0
220.014114 1008.0
220.275177 40.0
220.384476 96.0
220.585449 52.0
220.866379 100.0
221.00119 232.0
221.009644 132.0
221.369522 104.0
222.0215 180.0
223.004257 1976.0
224.007645 344.0
224.794159 56.0
225.000107 68.0
225.047882 96.0
225.923599 100.0
226.080704 300.0
227.073853 184.0
227.917435 40.0
228.082733 44.0
228.684311 136.0
229.018066 488.0
231.019913 152.0
231.069473 344.0
231.540543 200.0
232.013336 128.0
240.076767 92.0
244.029007 472.0
244.136856 44.0
247.018814 516.0
247.103348 64.0
248.020935 76.0
248.042877 160.0
249.018723 156.0
249.150665 152.0
250.997025 300.0
251.99884 48.0
259.052826 248.0
259.773651 88.0
260.062927 196.0
261.537811 52.0
261.985443 100.0
263.417786 36.0
276.001587 160.0
276.997803 156.0
278.673187 48.0
278.994873 168.0
280.703674 32.0
282.982544 32.0
286.051086 100.0
289.999054 152.0
290.012482 116.0
292.003082 140.0
295.6297 84.0
299.175415 164.0
302.032745 172.0
303.362488 40.0
304.011108 108.0
304.996704 144.0
305.992462 160.0
306.996002 164.0
308.763153 48.0
318.001434 136.0
319.010254 92.0
319.038696 116.0
329.24762 84.0
330.024567 104.0
333.199615 180.0
335.846161 88.0
336.455597 36.0
340.869293 68.0
346.014832 124.0
346.039276 124.0
347.026306 104.0
348.016998 120.0
352.864471 32.0
561.058105 48.0
606.117432 80.0
674.705444 88.0
812.725342 120.0
927.684143 100.0
1068.220459 132.0
1153.029419 180.0
1168.102661 56.0
1184.348999 216.0
1203.108765 148.0
1210.54187 124.0
1211.303711 112.0
1217.171265 132.0
1270.312134 208.0
1305.518921 116.0
1311.047974 116.0
1333.745972 144.0
1342.446533 156.0
1371.672241 168.0
1377.206543 172.0
1377.420776 48.0
1378.654663 60.0
1384.269653 116.0
1389.554688 196.0
1391.781372 136.0
1406.037354 200.0
1409.12146 76.0
1409.450195 108.0
1411.864746 92.0
1432.287964 144.0
1471.275269 196.0
1476.631958 188.0
1485.179932 56.0
1494.560425 184.0
