>compound Vorinostat
>formula C14H20N2O3 
>ionization [M+H]+
>parentmass 265.156
#inchi InChI=1S/C14H20N2O3/c17-13(15-12-8-4-3-5-9-12)10-6-1-2-7-11-14(18)16-19/h3-5,8-9,19H,1-2,6-7,10-11H2,(H,15,17)(H,16,18)
#inchikey WAEXFXRVDQXREF
#Ion_Source LC-ESI
#Instrument qTof
#Compound_Source Isolated
#PI Sirenas
#Data_Collector Ed Esquenazi 
#Scan -1
#Precursor_MZ 265.156
#ExactMass 0.0
#Charge 1
#CAS_Number N/A
#Pubmed_ID N/A
#Smiles N/A
#INCHI_AUX N/A
#Library_Class 3
#SpectrumID CCMSLIB00000006061
#IonMode Positive
#UpdateWorkflowName UPDATE-SINGLE-ANNOTATED-BRONZE
#LibraryQualityString Bronze
#TaskID d19310cd93df49b68e9fcbec27720eb5
##Scan# 2
#SpectrumFile Vorinostat.mgf
#LibraryName fda_library.mgf
#MQScore -1
#Organism fda_library
#TIC_Query 0
#RT_Query -1
#MZErrorPPM -1
#SharedPeaks 0
#MassDiff 0
#LibMZ -1
#SpecMZ 265.156
#SpecCharge 0
#internalFilename spec-00000.mgf

>collision 10
100.073792 14.61404
100.254654 4.007576
100.282272 4.0
100.711235 11.3346
101.043533 53.333328
101.093033 31.85714
102.052711 1013.669983
102.090569 1284.756958
102.120247 7.388889
102.133659 8.693376
102.144615 3.358333
102.19104 14.19947
102.211708 17.896669
102.291962 7.242816
102.349556 18.948099
102.429199 10.66752
102.493156 16.38866
103.226471 7.560484
103.2565 9.166667
103.283035 5.160714
103.301567 5.041667
103.367142 7.833333
103.463234 35.55254
103.682915 3.677083
104.031006 58.96117
104.047592 1350.937012
104.080048 3.666667
104.111046 4.382936
104.2117 18.385559
104.250465 6.361111
104.431786 19.48243
104.566833 5.391026
104.68782 8.685185
104.794632 4.711957
104.816002 2.666667
104.884521 7.190217
105.114861 4.791667
105.222404 8.573529
105.554565 17.08824
106.063301 154.619705
106.184555 11.18382
106.430069 12.2549
107.335541 4.297619
107.515076 10.34543
107.530754 12.29412
107.572632 15.81649
107.69838 4.297619
107.709961 6.737069
107.977425 9.739865
108.079559 2403.320068
108.124535 12.94318
108.140038 3.736111
108.293015 5.222222
108.389809 5.840278
108.451881 4.963235
108.578217 5.339743
108.93013 15.34343
109.06398 2127.498047
109.08699 84.015587
109.113174 33.0299
109.235214 21.373739
109.245949 11.14881
109.453606 6.775537
109.475525 34.547901
109.505051 6.231482
109.528908 21.676201
109.643066 5.337121
109.912659 13.01336
110.095047 481.514191
110.14621 3.0
110.2229 3.0
110.429016 13.64209
110.482376 5.001984
110.489655 37.424511
110.520332 28.867531
110.535385 36.44577
110.551857 4.008333
110.559174 5.33477
110.614052 7.673077
110.640022 22.5874
110.658348 12.92628
110.679916 5.0
110.696213 16.78698
110.786453 6.875
110.809158 3.266667
110.826363 4.007576
110.875069 12.69338
110.912315 7.666667
110.961914 7.688889
111.078941 17132.089844
111.123222 21.089741
111.135818 58.852982
111.159576 25.33333
111.176552 56.097099
111.207108 61.344311
111.214943 6.675926
111.224449 8.854167
111.232933 41.866539
111.240822 8.201667
111.251717 30.407579
111.262611 13.33712
111.272507 3.266667
111.28096 12.33621
111.288559 36.018349
111.317665 12.35161
111.343361 9.338889
111.35743 36.7355
111.375389 33.799679
111.387413 8.710784
111.4021 7.337302
111.420456 9.671875
111.435722 23.53437
111.456863 5.080128
111.474854 15.94565
111.495872 4.852273
111.511902 57.159679
111.524437 24.497129
111.542305 15.90682
111.581993 40.019081
111.589424 9.450892
111.602516 10.38294
111.629051 23.36787
111.686562 14.35417
111.692856 22.395121
111.773262 5.720238
111.813606 7.010417
111.843155 9.445371
111.861763 16.3867
112.080185 167.162704
112.2668 13.10507
112.330826 12.64722
112.494926 2.75
112.780594 8.307693
113.048347 17.022221
113.064255 9.349999
113.091774 46.387241
113.16938 7.382936
113.390045 10.00417
114.386475 6.633772
116.106644 17.016029
117.057899 28.841181
118.011169 10.92287
118.062408 434.571411
118.373138 38.72633
118.396873 17.04003
118.635574 13.39682
119.046204 79.585022
119.070938 701.035706
119.136581 8.013888
119.284187 3.4
119.316002 36.760059
119.345406 8.388441
119.375664 4.844298
119.389313 11.44231
119.401566 28.185341
119.417412 7.023809
119.425018 6.111111
119.446289 12.00119
119.485809 2.761364
119.492752 5.523809
119.520126 19.857071
119.688309 12.52083
119.752197 23.521721
119.771393 12.88158
119.791115 24.57341
119.83596 6.805555
119.963028 8.605556
119.992157 13.1276
120.042732 15887.269531
120.106125 102.867897
120.13327 6.724291
120.143761 26.44511
120.158691 9.768382
120.173462 21.4037
120.187744 66.565002
120.223648 55.253571
120.235878 13.67338
120.257561 33.149422
120.271278 23.02821
120.293243 20.10887
120.310905 27.763309
120.321434 14.72396
120.351906 15.29043
120.386482 53.11594
120.41259 11.1201
120.438446 44.641319
120.463478 27.3682
120.473824 12.48485
120.485855 19.56061
120.495911 38.504101
120.513741 30.2297
120.544518 4.185606
120.552528 7.09375
120.673592 21.37862
120.714081 8.069445
120.828171 8.078431
120.858765 16.024191
120.881714 4.35307
120.943558 22.895969
120.99688 30.82424
121.043152 80.881767
121.062935 7248.126953
121.125381 41.516602
121.14212 17.819599
121.165131 14.9481
121.208412 86.130363
121.241463 59.16404
121.29483 33.59848
121.308151 14.93202
121.335381 4.458333
121.356277 7.958333
121.364128 6.674242
121.406998 25.86062
121.441788 18.018471
121.46019 13.45588
121.476639 26.838539
121.529205 12.24537
121.586517 6.361111
121.958069 14.77381
122.06781 65.917824
122.108772 6.371913
122.157516 6.592949
122.669205 4.854167
123.403862 9.240384
124.997314 2.678571
125.324242 28.237551
125.359291 8.698232
125.468376 17.490311
125.511185 17.5
125.550545 23.1696
125.569679 6.054825
125.633125 5.414216
125.921234 3.440476
126.053665 44.68737
126.089508 3780.299072
126.136398 40.543541
126.14975 18.374371
126.188103 16.4
126.236549 11.01136
126.283012 13.41026
126.346436 11.42857
126.409149 12.7631
126.424667 13.09399
126.466248 8.38782
126.526566 3.773809
126.663628 7.083333
126.769348 6.401515
126.796776 3.695513
127.055481 16.366791
127.076408 75.218819
127.18882 8.044118
127.326248 15.42014
127.495026 12.5744
128.045868 51.711441
128.846909 27.495279
129.08609 26.256201
130.062988 213.883698
130.086334 54.82732
130.652908 11.66768
131.437805 10.135
131.489304 9.337121
131.65358 6.444445
131.884537 9.333333
132.040726 56.715912
132.078369 1691.920044
132.14035 1.6875
132.156281 3.440476
132.199524 11.68056
132.222748 11.89976
132.252975 3.760417
132.305939 26.779169
132.47052 16.5
132.492279 18.38868
133.773346 12.8293
134.054993 35.036289
135.067352 70.273514
135.63028 17.7533
136.07283 775.361572
136.108124 6.932018
136.229462 6.416667
136.267471 9.201667
136.588104 12.37186
136.658463 6.533333
136.811935 3.066667
137.057236 76.239853
137.094437 8.132247
137.905228 5.703947
138.184113 57.659969
138.223343 2.020833
138.249222 10.91053
138.263031 59.480171
138.284714 4.041667
138.296722 5.671297
138.305161 8.386905
138.316437 29.97661
138.325623 11.60093
138.347992 23.41667
138.356018 23.28381
138.370636 10.14286
138.379761 51.106209
138.405624 30.83836
138.429184 73.948517
138.44313 25.793289
138.490417 33.814232
138.517914 12.06187
138.530396 36.099258
138.580154 20.938379
138.600052 9.482142
138.640854 14.29167
138.710495 4.011905
138.718338 27.85606
138.807922 21.347219
138.826843 16.93421
138.886734 3.760417
139.019028 10.1859
139.050049 62.40094
139.073486 33892.238281
139.123886 40.05555
139.141129 36.056129
139.226074 20.41667
139.233292 31.494049
139.260864 31.04838
139.273453 42.62302
139.287735 31.87731
139.299484 27.65176
139.313354 99.670532
139.335663 56.184929
139.3461 65.28611
139.364883 55.456799
139.389023 42.687511
139.403442 17.33333
139.415039 73.789551
139.443451 42.964722
139.468491 44.639042
139.485825 21.050369
139.494171 12.00333
139.503525 45.652531
139.525528 35.204369
139.537979 24.18939
139.559998 20.724541
139.56926 27.47109
139.588699 14.0
139.599518 23.79891
139.619812 26.662609
139.635193 25.396429
139.658646 20.059521
139.673218 37.874649
139.683258 16.68873
139.70105 28.298679
139.740677 45.027889
139.765076 14.71212
139.786026 18.334261
140.146729 12.62708
140.214142 4.333333
140.226501 11.9616
140.29686 13.0704
140.49028 14.81548
140.585129 10.71011
140.721283 14.7947
140.836868 3.028846
140.887863 4.387821
141.005417 3.926282
141.101273 30.57353
141.275345 7.708333
141.390625 9.0
142.018021 6.333333
142.747742 2.777778
143.230637 21.111111
143.272308 16.02351
143.379059 15.08003
143.412369 73.928658
143.42952 11.69823
143.437347 5.673077
143.587433 5.522727
143.620743 3.002778
143.695801 4.75
143.787674 7.669445
143.800095 5.688726
143.841782 8.025641
143.879333 10.3913
143.971176 7.810714
144.037933 10.46959
144.058838 11.51894
144.078629 276.604309
144.099533 6371.687988
144.151016 12.00463
144.161423 16.716471
144.192474 3.0
144.212814 10.625
144.241608 21.73897
144.255142 9.33477
144.265015 25.715139
144.287247 52.641281
144.298492 5.095238
144.313354 16.796431
144.328552 22.82876
144.336212 7.547619
144.376312 54.876759
144.434845 21.75947
144.451706 7.291667
144.464767 23.51054
144.495972 16.42857
144.535233 6.022223
144.565399 7.007576
144.618896 8.213384
144.653976 20.900129
144.710953 16.4109
144.762482 25.180559
144.815582 9.375
145.099533 137.469803
145.205154 8.340909
145.35614 9.360043
145.771667 8.088889
146.05632 70.156532
146.225967 11.47115
147.098328 16.49135
147.224365 12.86613
147.638321 4.668651
148.07254 517.511475
148.106781 77.27729
148.196823 10.80474
148.344803 8.054825
148.530258 9.408334
149.026764 16.89352
149.759415 9.044118
150.539505 2.678571
153.14592 12.65337
153.238251 11.04749
153.26123 22.867861
153.372757 9.816667
153.408859 3.354167
153.425827 8.819445
153.442596 13.71902
153.460312 13.80659
154.042664 7.677381
154.083908 6210.083984
154.135223 45.47361
154.150909 4.773809
154.168304 11.26667
154.176422 3.125
154.207077 15.25
154.245667 17.0
154.268311 14.45581
154.277191 12.65351
154.294327 10.78914
154.319122 5.341667
154.340729 9.109649
154.354507 18.555559
154.370987 11.46377
154.401245 11.74898
154.487717 7.0
154.513718 14.72341
154.535278 4.007576
154.5569 4.054824
154.584641 22.1201
154.665863 5.708333
154.683838 10.45
154.725922 9.422101
154.734299 6.777778
154.781891 10.81667
154.807846 9.852273
154.841476 7.053572
154.963715 2.666667
155.148865 11.93939
155.245331 8.700269
155.301697 4.677083
155.340714 8.341311
155.383469 35.895241
155.453461 3.010417
155.475159 8.011363
155.50119 10.04748
156.761658 20.39646
157.079636 19.41049
158.058105 10.73333
158.093872 182.774094
159.057129 10.10526
159.076218 2.666667
160.109009 42.222519
161.117584 62.507832
161.161163 3.020833
161.262604 15.08545
161.447571 9.041667
162.088593 456.316895
162.124619 650.529602
162.238556 13.97984
162.249435 7.656609
162.333481 7.719017
162.413803 7.779321
162.479782 3.013889
162.510818 3.002778
162.537994 8.948333
162.71933 7.138889
162.741516 8.435606
162.759262 12.1408
164.067474 85.113579
164.102737 3.761364
164.142838 6.306159
164.539413 8.008721
170.096527 44.02977
171.102982 60.30933
171.145981 14.36905
171.223755 11.78392
171.241165 10.68056
171.2966 8.046875
171.319382 19.34211
171.355652 10.02778
171.53801 7.05
171.697525 3.336538
171.754501 6.291667
171.838867 4.022059
171.870789 6.840517
171.922958 19.156919
172.036316 26.000481
172.094406 8116.973145
172.130875 15.78407
172.151382 6.083333
172.16629 44.338032
172.192474 52.204319
172.224899 18.026711
172.240295 21.79863
172.256363 26.98098
172.294769 80.501862
172.319672 28.911869
172.340118 49.410789
172.350983 37.116371
172.381989 12.12297
172.395599 11.68055
172.437225 19.92481
172.466797 12.97056
172.496185 15.74561
172.526138 20.139139
172.562927 17.28903
172.582977 7.351191
172.59671 22.109119
172.619675 4.695513
172.651123 64.464729
172.711075 9.688597
172.733856 11.24575
172.761368 39.363071
173.09343 41.046612
173.420364 11.66667
173.580811 14.44138
174.714844 22.68841
174.915344 8.965829
175.004517 8.333333
176.102921 128.714401
176.207153 10.09722
176.457199 6.339743
184.10849 30.851851
185.024826 15.00872
185.132736 6.208333
185.385864 15.41333
185.578934 24.75256
186.125427 1396.777954
186.17746 9.197511
186.233505 5.054824
186.263092 9.261905
186.408463 13.95076
186.437164 5.932018
186.490036 4.844298
186.532745 16.59964
186.664124 8.830556
186.865463 9.033603
186.894363 9.642095
186.940674 5.490385
186.968323 3.080128
188.104965 175.165497
188.14032 75.597519
188.185074 2.666667
190.119888 327.123688
190.16272 3.444444
195.124786 2.761364
196.109177 139.990601
196.292877 2.671296
196.44397 5.703703
196.546402 6.05
200.644638 6.88587
201.135269 74.727074
201.695068 5.190476
201.762024 10.64651
202.893311 8.34543
202.908173 11.60333
202.937912 10.33426
202.964157 9.347222
202.997025 3.0
203.031082 11.2192
203.066986 13.81333
203.093704 21.19562
203.116669 28.39533
203.190735 5.668478
203.236084 14.72531
203.513245 8.284091
203.890549 7.667857
204.135696 10788.0
204.193817 32.426491
204.21962 21.76692
204.230408 6.306818
204.243286 25.60985
204.271866 82.698883
204.300781 9.841492
204.336472 24.91193
204.352875 24.634569
204.377411 6.362179
204.404282 40.64019
204.452026 8.010417
204.467667 31.761459
204.500458 52.714458
204.528854 37.707062
204.566605 36.97023
204.620346 36.975079
204.638519 4.1875
204.661362 34.36198
204.677078 11.15188
204.718613 36.145302
204.742264 15.96491
204.790359 25.1938
204.92012 14.67167
205.088181 12.04167
205.098892 12.10256
205.55307 16.726191
205.695374 27.84466
206.452225 26.723961
206.552444 22.02564
206.731842 14.0056
206.826889 3.047619
210.268265 9.614036
210.308594 8.692073
212.569794 8.380815
212.777847 13.08654
213.056992 7.520833
213.253708 5.297619
213.692245 15.32898
213.719421 4.387821
213.951645 5.37037
214.085953 30.06249
214.119339 2075.335938
214.170502 7.371913
214.190872 13.42391
214.263626 15.00338
214.297195 7.120098
214.369034 10.73353
214.480972 5.541667
214.503433 25.308189
214.527039 6.688889
214.566071 17.445511
214.603958 28.1241
214.796829 6.671297
214.951843 7.653986
217.036667 9.858334
228.050735 17.388611
229.127731 144.574097
229.996033 7.291667
230.259949 15.09524
230.52951 5.939394
230.576599 7.347222
230.658691 19.42079
230.676987 19.018749
230.712082 31.92417
230.741058 42.539028
230.760635 24.68247
230.784729 88.58844
230.80867 101.509903
230.821335 22.170469
230.841522 106.122398
230.859802 152.557098
230.887558 54.650871
230.918472 76.474083
230.940231 76.124092
230.957993 61.994781
230.983994 81.067177
231.013 25.677349
231.027542 26.075701
231.042328 98.56868
231.086823 30.46891
231.103256 43.749039
231.126572 19.418791
231.165604 42.8955
231.212692 28.176901
231.256882 34.597172
231.300888 9.669642
231.374954 9.0
231.413086 22.82975
231.522385 19.747129
231.554916 9.003472
231.681946 12.83043
231.702499 28.26759
231.761475 24.457781
232.010422 63.702671
232.060928 80.481163
232.086411 197.972397
232.130585 56436.640625
232.214249 115.761902
232.277374 45.82011
232.302582 21.18391
232.3293 43.979172
232.370285 13.97961
232.397064 5.865196
232.42247 44.674099
232.455368 75.853859
232.480347 92.05687
232.494507 21.25321
232.522583 15.48316
232.538025 17.263161
232.559311 58.7356
232.573364 29.92474
232.5896 54.359779
232.614395 34.737289
232.637024 43.942421
232.655701 104.656998
232.689194 20.90134
232.71373 165.683197
232.741669 86.145714
232.754013 31.658001
232.83461 33.393478
232.889038 87.450699
232.991241 33.782612
233.172989 16.09643
233.325165 38.43441
233.346466 36.917591
233.369034 45.35511
233.410706 15.00417
233.533371 17.78299
233.773834 23.88714
233.798599 5.694445
233.931564 12.03716
234.076279 4.669445
234.154724 9.362122
234.174423 18.69853
234.305588 3.857143
234.566406 7.656609
234.591736 12.04167
234.691437 3.0
234.73674 2.666667
234.774048 16.177219
234.903824 14.35802
235.0522 26.12495
235.184692 16.96056
235.206009 2.333333
235.255951 4.226852
235.357758 10.00595
235.376953 12.83333
235.483536 7.455883
235.653198 31.733971
235.702713 11.71905
235.962814 5.336111
236.017685 6.724359
236.296692 5.708333
236.504288 2.016667
236.963974 7.189394
236.99675 13.38272
237.865158 6.76923
239.515198 11.075
241.278992 2.0
247.14035 119.836601
250.266602 5.334877
266.8909 26.39373
345.218292 15.14969
524.012695 12.41667
550.142151 5.787037
651.924561 35.725849
670.767639 36.552479
796.5896 12.23184
1014.570068 3.669872
1447.986694 22.0
1552.197632 7.355556
