>compound MLS001146905-01!
>formula C5H8N4O3S2
>ionization [M+H]+
>parentmass 237.012
#inchi InChI=1S/C5H8N4O3S2/c1-3(10)7-4-9(2)8-5(13-4)14(6,11)12/h1-2H3,(H2,6,11,12)
#inchikey FLOSMHQXBMRNHR
#Ion_Source LC-ESI
#Instrument qTof
#Compound_Source NIH Pharmacologically Active Library
#PI Dorrestein
#Data_Collector VP/LMS
#Scan -1
#Precursor_MZ 237.012
#ExactMass 236.004
#Charge 1
#CAS_Number N/A
#Pubmed_ID N/A
#Smiles CC(=O)N=c1sc(nn1C)S(=O)(=O)N
#INCHI_AUX N/A
#Library_Class 1
#SpectrumID CCMSLIB00000085139
#IonMode Positive
#UpdateWorkflowName UPDATE-SINGLE-ANNOTATED-GOLD
#LibraryQualityString Gold
#TaskID d252d724072548979f1f6f1ced849daf
##Scan# 1264
#SpectrumFile p3-F04_GF4_01_18285.mzXML
#LibraryName Pharm_Active_Library.mgf
#MQScore -1
#Organism Pharm_Active_Library
#TIC_Query 0
#RT_Query -1
#MZErrorPPM -1
#SharedPeaks 0
#MassDiff 0
#LibMZ -1
#SpecMZ 237.012
#SpecCharge 0
#internalFilename spec-00000.mgf

>collision 10
51.966938 180.0
58.696087 188.0
58.937275 212.0
62.723156 184.0
63.233364 132.0
68.348656 132.0
70.536369 192.0
71.445328 148.0
73.292625 56.0
76.694962 196.0
80.406334 164.0
87.884903 116.0
88.897278 160.0
90.744026 144.0
96.562416 160.0
98.405762 44.0
101.66452 88.0
101.945679 156.0
103.957146 176.0
105.029388 172.0
105.049789 216.0
114.011475 184.0
114.260262 180.0
115.147057 160.0
115.728737 184.0
116.024849 372.0
120.066063 164.0
129.817795 144.0
132.035294 184.0
133.028214 200.0
136.008453 184.0
138.967728 160.0
141.958847 196.0
144.816498 200.0
145.132843 132.0
147.395569 220.0
149.011765 196.0
152.06218 172.0
155.038803 224.0
155.857727 160.0
156.890656 92.0
158.663239 160.0
166.900589 188.0
167.855942 108.0
170.03685 168.0
175.968964 256.0
180.922241 216.0
183.23468 124.0
183.925064 100.0
194.569839 44.0
194.99939 3724.0
195.075455 112.0
195.161652 52.0
195.495468 40.0
195.573395 56.0
195.709808 48.0
195.998962 164.0
196.105408 56.0
196.91217 116.0
196.995132 672.0
197.034668 92.0
197.291794 80.0
197.462372 84.0
199.951035 56.0
216.927658 220.0
217.928467 168.0
218.192993 188.0
239.12027 152.0
254.934998 136.0
320.80719 196.0
458.860718 76.0
881.47821 160.0
963.122009 240.0
994.179443 92.0
1188.10022 80.0
1296.225098 96.0
1312.773804 48.0
1342.004883 192.0
1391.866821 160.0
1419.447632 164.0
1469.181274 216.0
1475.826172 140.0
1493.342285 124.0
