>compound Aztreonam
>formula C13H17N5O8S2 
>ionization [M+H]+
>parentmass 436.059357
#inchi InChI=1S/C13H17N5O8S2/c1-5-7(10(20)18(5)28(23,24)25)16-9(19)8(6-4-27-12(14)15-6)17-26-13(2,3)11(21)22/h4-5,7H,1-3H3,(H2,14,15)(H,16,19)(H,21,22)(H,23,24,25)/b17-8-/t5-,7-/m0/s1
#inchikey WZPBZJONDBGPKJ
#Ion_Source LC-ESI
#Instrument qTof
#Compound_Source Isolated
#PI Sirenas
#Data_Collector Ed Esquenazi 
#Scan -1
#Precursor_MZ 436.06
#ExactMass 0.0
#Charge 1
#CAS_Number N/A
#Pubmed_ID N/A
#Smiles N/A
#INCHI_AUX N/A
#Library_Class 3
#SpectrumID CCMSLIB00000005428
#IonMode Positive
#UpdateWorkflowName UPDATE-SINGLE-ANNOTATED-BRONZE
#LibraryQualityString Bronze
#TaskID d19310cd93df49b68e9fcbec27720eb5
##Scan# 1
#SpectrumFile Aztreonam.mgf
#LibraryName fda_library.mgf
#MQScore -1
#Organism fda_library
#TIC_Query 0
#RT_Query -1
#MZErrorPPM -1
#SharedPeaks 0
#MassDiff 0
#LibMZ -1
#SpecMZ 436.06
#SpecCharge 0
#internalFilename spec-00000.mgf

>collision 10
123.55632 15.39682
125.617119 4.4
126.010101 311.664001
126.181686 4.916667
126.461021 10.08167
126.566902 10.3447
127.01825 163.4785
127.602257 10.00082
128.085297 9.815476
138.009399 48.658001
153.021408 30.453699
156.019073 97.132683
166.030624 60.71347
170.119934 3.816667
170.197952 3.669118
171.035828 97.534698
180.05835 16.672621
181.018066 179.573196
181.050034 28.45752
181.24263 2.893518
181.282501 7.773809
181.302399 20.149099
181.452148 8.366936
181.756882 5.358974
181.888779 4.59375
182.025146 775.888184
182.082016 7.586111
182.147354 6.408333
182.226196 5.049603
182.302322 10.59722
182.385925 19.081079
182.414047 8.934524
183.033096 417.543304
183.293793 3.358333
183.354904 23.676769
183.432007 16.33333
183.732071 10.01389
183.760315 2.708333
184.458984 8.728536
196.01738 48.453701
199.025833 168.748199
199.175842 6.711957
199.445801 7.408951
200.054794 13.49359
200.648758 11.88005
207.499588 6.399193
207.766113 5.041667
207.952637 34.074242
208.054291 35.027779
208.664185 2.361111
208.930252 11.35756
209.011917 575.80603
209.048218 406.75061
209.203888 27.505449
209.232071 7.001344
209.282394 15.7904
209.327271 10.30242
209.367035 18.953239
209.464096 2.816667
209.572571 38.986408
209.9823 45.63224
210.019699 3737.313965
210.107697 10.72556
210.128754 2.333333
210.179886 4.963235
210.215683 30.40761
210.245026 11.87879
210.256332 12.16177
210.337692 27.39957
210.38945 47.072739
210.416382 4.844298
210.637451 7.740942
210.669205 17.082821
210.815628 6.402778
211.023254 28.3734
211.118332 5.0
211.892487 13.93667
215.932358 8.4375
220.449265 7.35
223.057632 84.551819
223.538513 9.757883
225.073959 33.201481
226.021408 18.044081
227.024078 886.992126
227.110397 1.666667
227.419846 10.64015
228.433472 11.21802
236.44751 10.05235
239.059738 6.0
242.048935 10.50347
251.058121 77.079422
252.49704 10.125
253.039764 22.312771
253.664856 11.04545
269.068817 386.640503
269.312744 13.54672
269.444702 4.408333
269.542328 11.82372
269.604614 7.666667
270.065186 643.554016
270.261932 10.33468
270.404938 16.67053
270.445526 8.41523
270.467865 4.033333
283.183685 17.76969
283.658447 20.185261
285.062469 1000.002991
285.13681 8.188406
285.218842 20.58333
285.365662 5.001984
285.922455 3.266667
286.463898 11.66865
286.552826 8.400001
293.610779 7.560484
294.49408 6.306159
308.067993 26.103451
310.092957 59.1129
310.232605 5.160714
311.019958 40.400532
311.054199 19.79365
311.085114 71.87793
311.139404 141.013
311.166138 50.1483
311.187134 19.463539
311.206421 5.963235
311.255127 54.376911
311.288818 76.544083
311.331879 48.607811
311.354767 12.82456
311.372711 33.58942
311.417755 29.52216
311.435028 72.502274
311.454224 8.675
311.486877 19.31851
311.512085 23.185329
311.625092 6.004902
311.717224 13.17689
311.735504 16.001539
311.899536 20.63559
311.976196 26.580879
312.070068 8.775641
312.128204 12.10256
312.184174 10.92064
312.208893 13.26759
312.227203 20.39333
312.358887 48.379292
312.454712 10.92287
312.518799 32.201672
312.552856 6.494048
312.623718 11.46371
312.690155 13.25139
312.781189 99.717781
312.836243 10.35897
312.983734 46.884899
313.060394 36042.050781
313.223022 66.120369
313.26004 26.081079
313.305511 70.586342
313.335052 135.087204
313.397278 82.181618
313.432007 78.516479
313.486481 90.102127
313.514832 81.771027
313.539703 108.765602
313.58252 58.84441
313.619141 103.460297
313.642914 35.88739
313.683411 63.54837
313.713348 125.889397
313.746277 40.022362
313.879517 28.967649
313.902863 66.451111
313.950775 62.646221
313.971649 47.69104
314.009277 65.103119
314.166565 39.898609
314.265991 49.517879
314.368378 24.77932
314.808197 7.06586
314.821442 8.445988
314.858093 58.393559
315.089417 12.63117
315.111176 3.857143
315.195648 10.11111
315.320709 8.462607
315.771027 6.231482
316.390503 14.81897
316.805084 11.00463
317.100739 4.782407
317.130035 2.583333
318.556763 5.208333
318.913971 7.520061
320.512726 7.075
320.581055 12.43678
320.930084 6.927469
328.107208 289.643188
328.693085 18.375
336.785278 1.777778
353.311584 11.35714
353.641083 3.490385
353.756531 10.3344
353.782715 9.352941
353.835052 1.6875
353.85788 24.49435
353.877502 18.818239
353.898712 21.968679
353.926727 17.15686
353.945465 28.565929
353.972504 10.10289
354.007843 37.73024
354.065735 17.135679
354.096893 29.342381
354.120636 10.05449
354.165619 7.208333
354.232666 21.96249
354.719086 5.677083
354.965912 11.21354
355.08606 1.875
355.145081 5.333333
355.693298 56.877628
356.01532 15.55556
356.041962 5.669445
356.101868 15558.629883
356.181824 132.791595
356.211182 23.06295
356.259857 136.498001
356.289551 31.009609
356.322784 45.57233
356.360931 31.18667
356.380035 38.854172
356.426147 46.245449
356.473358 30.43939
356.523956 46.10461
356.542877 8.34543
356.568115 25.319441
356.596802 56.065979
356.615662 56.41967
356.655548 55.111729
356.707367 92.19458
356.727722 11.2192
356.777802 40.76786
356.811218 62.749008
356.860504 98.414436
356.896942 57.14669
356.950653 7.670455
356.968903 43.382961
357.002441 20.680559
357.049683 38.730949
357.218506 19.71863
358.028992 7.361111
358.081665 7.0
358.127747 6.666667
358.167328 23.684111
358.195953 22.96155
358.318695 9.388888
358.522369 9.7
358.562408 1.666667
359.000671 14.80028
359.713928 22.44792
360.02887 26.000311
360.164978 7.017857
360.60257 79.693207
361.936523 6.344697
372.975189 42.259289
433.274292 3.852273
433.606384 20.50794
433.66983 5.891666
433.820374 7.680555
435.941956 49.64069
436.059357 2498.551025
436.151337 11.74722
436.207581 22.25379
436.23291 11.39103
436.290527 28.38615
436.324005 22.2999
436.361389 2.444444
436.415558 9.752084
436.480591 13.9078
436.624878 6.095238
436.854492 28.60088
437.277008 3.560185
437.51947 7.442204
438.734406 11.89352
438.808472 4.481482
479.004333 9.716269
598.396362 23.84355
598.450134 2.4
