>compound Lansoprazole
>formula C16H14F3N3O2S 
>ionization [M+H]+
>parentmass 370.0831588000905
#inchi InChI=1S/C16H14F3N3O2S/c1-10-13(20-7-6-14(10)24-9-16(17,18)19)8-25(23)15-21-11-4-2-3-5-12(11)22-15/h2-7H,8-9H2,1H3,(H,21,22)
#inchikey MJIHNNLFOKEZEW
#Ion_Source LC-ESI
#Instrument qTof
#Compound_Source Isolated
#PI Sirenas
#Data_Collector Ed Esquenazi 
#Scan -1
#Precursor_MZ 370.084
#ExactMass 0.0
#Charge 1
#CAS_Number N/A
#Pubmed_ID N/A
#Smiles N/A
#INCHI_AUX N/A
#Library_Class 3
#SpectrumID CCMSLIB00000006481
#IonMode Positive
#UpdateWorkflowName UPDATE-SINGLE-ANNOTATED-BRONZE
#LibraryQualityString Bronze
#TaskID d19310cd93df49b68e9fcbec27720eb5
##Scan# 1
#SpectrumFile Lansoprazole.mgf
#LibraryName fda_library.mgf
#MQScore -1
#Organism fda_library
#TIC_Query 0
#RT_Query -1
#MZErrorPPM -1
#SharedPeaks 0
#MassDiff 0
#LibMZ -1
#SpecMZ 370.084
#SpecCharge 0
#internalFilename spec-00000.mgf

>collision 10
107.635696 8.748334
118.429031 9.342593
119.059776 2029.026001
119.106483 13.91901
119.164444 17.48576
119.181793 31.528681
119.255913 24.7027
119.317337 10.08333
119.338005 5.075
119.438393 21.46944
119.487465 11.00298
119.648659 10.23132
119.714851 6.558333
119.769035 10.00347
120.264801 28.760679
128.000046 6.672222
136.075516 107.239899
151.011688 46.334469
166.016556 51.42767
185.066971 64.280006
204.061996 34.028992
204.161636 9.005208
205.071335 490.118896
205.286865 24.349211
205.413025 10.02778
205.970032 4.408333
206.00708 14.76587
219.18306 2.893518
220.056885 369.176392
220.099304 3.028846
220.409592 11.86667
220.521576 28.548519
222.072296 122.145699
222.117523 2.336539
234.012253 57.433529
234.76355 9.716269
235.022308 27.03101
250.473709 8.284091
250.51416 9.149692
250.60881 22.688601
250.633698 11.3649
251.201309 6.306159
251.406235 16.6674
251.51535 15.00362
251.621628 10.13611
252.030106 5153.637207
252.074768 122.327599
252.099976 7.138889
252.121597 34.66861
252.141602 16.355551
252.178406 15.35833
252.193756 13.7
252.216339 22.67778
252.246368 29.24345
252.268158 19.85227
252.325592 2.816667
252.35466 21.140949
252.386276 10.72024
252.420944 9.130208
252.454147 3.34375
252.502228 26.574051
252.526001 15.66919
252.541885 24.92004
252.593307 30.451851
252.673615 37.26104
252.691895 18.799999
252.76387 26.501909
252.79628 10.20167
252.831879 6.906746
253.15564 7.335318
253.28952 16.366791
254.259338 6.057692
254.542496 9.335784
290.437714 2.375
291.925568 36.59375
292.08374 28.053761
292.993774 8.875
310.963898 18.9053
320.252686 2.333333
352.063904 49.830109
352.117188 9.033476
354.079498 31.578381
370.086029 499.844788
370.647186 8.734848
370.789764 3.125
371.114105 9.484849
