>compound Prednisolone
>formula C21H28O5 
>ionization [M+H]+
>parentmass 361.201111
#inchi InChI=1S/C21H28O5/c1-19-7-5-13(23)9-12(19)3-4-14-15-6-8-21(26,17(25)11-22)20(15,2)10-16(24)18(14)19/h5,7,9,14-16,18,22,24,26H,3-4,6,8,10-11H2,1-2H3/t14-,15-,16-,18+,19-,20-,21-/m0/s1
#inchikey OIGNJSKKLXVSLS
#Ion_Source LC-ESI
#Instrument qTof
#Compound_Source Isolated
#PI Sirenas
#Data_Collector Ed Esquenazi 
#Scan -1
#Precursor_MZ 361.202
#ExactMass 0.0
#Charge 1
#CAS_Number N/A
#Pubmed_ID N/A
#Smiles N/A
#INCHI_AUX N/A
#Library_Class 3
#SpectrumID CCMSLIB00000004490
#IonMode Positive
#UpdateWorkflowName UPDATE-SINGLE-ANNOTATED-BRONZE
#LibraryQualityString Bronze
#TaskID d19310cd93df49b68e9fcbec27720eb5
##Scan# 1
#SpectrumFile Prednisolone.mgf
#LibraryName fda_library.mgf
#MQScore -1
#Organism fda_library
#TIC_Query 0
#RT_Query -1
#MZErrorPPM -1
#SharedPeaks 0
#MassDiff 0
#LibMZ -1
#SpecMZ 361.202
#SpecCharge 0
#internalFilename spec-00000.mgf

>collision 10
101.06102 525.44342
101.082596 8.529605
105.072472 148.517502
107.087013 170.460999
107.130478 3.0625
107.162926 24.45833
107.33532 13.8288
109.062431 83.458344
109.10183 138.989899
109.196793 4.5125
109.316391 12.14464
111.046425 95.880074
111.081749 50.525002
113.058823 57.806141
115.073921 109.474098
117.065399 31.60417
119.084099 27.50893
119.380562 17.046881
120.356537 34.666672
120.532967 19.506941
120.564629 11.64205
120.986198 31.000959
121.065605 779.24939
121.097557 35.92046
121.104652 55.11433
121.147659 17.66827
121.292519 6.043269
121.315491 2.53125
123.044128 101.714897
123.080948 62.039768
124.084274 51.624039
125.058289 99.735153
125.116394 19.04006
129.46048 27.14286
131.081619 100.081802
132.051346 79.346268
132.101654 4.0
133.062408 395.508514
133.100525 211.160995
133.152191 16.673611
133.221024 13.72454
134.342224 9.509615
135.04657 27.582911
135.079742 962.249878
135.117508 143.903
135.16658 4.778409
135.197281 8.125
135.311234 12.8288
136.028 18.78409
136.104965 23.342991
137.094543 135.581696
138.539825 2.508929
138.609436 14.14881
139.07634 212.891693
139.692429 22.96023
143.075256 133.4375
143.10997 7.033088
143.480423 16.0
145.060791 152.889206
145.103012 215.305603
145.642929 5.591912
146.206116 21.18531
146.391205 8.5
146.521652 22.55114
146.679245 21.236839
147.079819 5630.367188
147.130157 70.505211
147.175171 12.08654
147.204865 59.104851
147.242691 12.0
147.310349 17.98214
147.375443 16.133329
147.405884 28.25625
147.453003 28.72917
147.487122 10.68015
147.502899 17.44643
147.551056 12.42614
147.58905 4.020833
147.813126 10.54167
148.11351 2.5
148.44014 18.46023
148.480042 10.875
148.545273 10.86012
149.096542 166.358307
149.161209 13.38007
149.3526 25.77586
149.646332 15.2025
149.725998 5.725
150.319138 12.86029
151.076035 204.578293
151.112762 305.202209
152.057724 25.92
153.087997 245.618301
153.151718 2.580357
155.075668 79.099998
157.083176 255.750595
157.096481 209.397995
158.068176 35.10651
159.08136 426.533691
159.116119 129.090393
159.264801 24.14015
159.312073 4.043269
159.334137 13.90909
160.373016 8.133152
160.809433 10.01389
161.095459 825.773987
162.722763 23.112499
163.074493 560.828796
163.109161 175.787994
163.191681 4.571429
163.240326 11.55556
163.298355 7.009615
163.502914 15.67587
163.534348 37.666672
163.744522 14.14009
163.787735 12.54735
164.215439 25.52648
165.090042 637.268188
165.144028 2.5
165.607056 7.0625
166.277039 8.602273
167.084427 76.117729
167.148453 5.502976
167.171936 31.94022
168.363754 4.223214
169.084808 217.494202
170.189117 7.009615
171.080811 1841.401001
171.125015 3.580357
171.157181 6.0
171.225464 19.0
171.284637 8.538462
171.306778 17.082661
171.321075 9.6225
171.39621 21.3125
171.419159 20.950661
171.501343 5.840278
171.512375 6.0375
171.571609 23.5947
171.731125 19.51148
172.004791 20.02005
172.295929 12.66667
172.385025 14.14009
173.095703 1706.536987
173.147324 10.54545
173.257202 13.53325
173.285294 15.6125
173.317123 42.297192
173.34404 14.34073
173.477097 5.160714
174.37738 12.84028
174.400925 2.5
175.061478 15.90139
175.108597 115.5224
175.44841 4.0625
175.798737 13.18445
177.090759 113.0131
177.541992 8.538462
177.671738 22.025
178.07692 138.3181
179.103928 82.765633
181.098816 119.4328
181.650513 11.9025
182.296921 2.508929
183.111038 113.142899
183.157516 3.025
183.445419 21.078529
184.308044 10.55
185.095306 407.196991
185.329681 13.11773
185.635269 13.75
185.865967 9.704166
185.974106 13.24039
187.110123 68.010002
187.37175 11.50658
187.400406 30.285601
187.471985 12.55
189.084961 54.65984
189.130325 95.439667
191.067429 106.182098
191.102386 55.920139
191.22464 6.051136
193.328049 8.0
193.489044 4.340278
196.051193 6.533088
197.097351 528.406799
198.125 15.42045
198.783585 12.53811
199.077072 105.809097
199.109192 560.856812
199.179993 4.0
199.31459 25.450211
199.397171 5.513889
199.431595 9.3025
199.706802 8.760417
200.529526 14.44531
200.602554 13.00961
201.092865 136.818497
201.128784 239.172897
201.441086 29.00403
203.063858 8.166667
205.091354 75.108109
207.132156 26.082911
208.083466 70.336838
209.096344 368.552307
209.474045 24.65308
210.23027 22.105
211.11084 368.022003
213.08844 73.690002
213.126038 137.800293
213.221527 8.5625
213.521469 31.0352
215.071945 54.1875
217.121872 68.006767
217.34346 13.0625
217.745499 4.625
219.096985 69.767578
221.091782 83.112503
221.129089 60.333328
221.179062 40.504028
221.324341 34.524849
221.338913 25.51923
221.375198 13.73684
221.753464 10.50417
222.101837 128.704193
222.147293 3.041667
222.858139 5.583333
223.110733 1237.087036
223.154175 6.515625
223.211411 25.06612
223.258255 14.70833
223.344162 7.25
223.466095 15.05625
223.674164 21.30682
223.806213 10.61765
223.898102 7.660714
225.054337 7.390625
225.091248 89.378151
225.128464 445.001709
225.200577 13.4225
226.368866 14.84698
226.81781 37.0
227.104538 136.204803
227.139114 335.615814
227.344162 9.375
227.967316 22.31818
228.165817 11.67361
229.126907 36.393379
231.103317 115.378098
231.398438 10.76078
233.097809 33.32008
233.679611 9.570313
233.747147 13.66964
235.110931 291.931702
235.317596 24.56806
235.768921 8.041667
237.009842 7.55
237.125809 764.94458
237.246399 10.66667
237.283066 22.00123
237.325562 5.785714
237.383743 35.1875
237.938751 31.55714
238.030502 57.582661
239.141541 1330.797974
239.231354 16.74107
239.259262 17.675871
239.3992 9.3025
239.453506 12.675
239.79451 21.586889
240.010376 17.742649
241.159256 274.93811
241.270645 5.160714
241.448975 33.199669
243.116882 141.0681
245.860504 24.793631
247.107147 155.737106
247.306015 2.508929
247.425385 10.62019
248.132401 21.80625
248.818405 35.951111
249.126282 539.695923
249.16246 101.641403
249.191589 14.01607
249.693405 11.48098
250.401062 13.84073
250.472794 21.504999
251.090805 78.769234
251.144211 263.830688
251.332443 7.510417
251.438141 17.14583
251.492905 55.855652
251.525513 10.5
251.779373 17.226851
252.176987 14.02
253.128006 74.579208
253.162338 46.81778
255.135757 146.044601
255.17041 47.512501
257.157196 159.319702
259.113251 24.67308
259.144653 45.883049
260.112061 38.021549
261.121826 205.400299
261.161102 34.365398
261.464783 9.5025
263.141418 834.965515
263.184418 5.725
263.291016 17.586439
263.35788 5.735577
263.536316 22.180149
263.605804 48.23193
263.629333 8.555555
263.833313 4.173611
264.384857 5.666667
264.635742 14.59879
264.749542 21.785469
265.122894 100.684402
265.157288 1778.08606
265.222076 14.00781
265.275757 8.0375
265.394653 23.26667
265.440002 20.504471
265.640594 8.265625
265.71814 25.112499
265.831665 28.103319
265.874908 17.835649
265.915985 12.4375
265.94339 30.9
266.024139 18.00189
266.165131 1532.76001
266.2341 6.526786
266.557953 13.04735
267.136719 58.212502
267.229828 9.875
267.25116 14.02083
267.286377 3.020833
267.349854 12.22321
267.364777 11.74039
267.507141 25.03977
267.660614 10.68182
267.782135 30.25
268.167572 9.586538
269.119965 26.15
269.148834 105.112297
269.189026 87.511032
269.555084 11.1
270.001038 33.6675
271.144653 81.048782
271.316223 46.533199
271.961823 5.1125
274.119904 20.3125
275.668091 10.0625
276.149353 79.243477
277.158905 642.349487
277.31897 19.00272
277.516846 65.253098
277.544281 6.889423
277.615356 9.161184
277.76944 8.765625
277.989624 13.22727
278.764069 14.60332
278.843842 18.66898
279.047424 37.980049
279.139343 305.555298
279.173431 2852.939941
279.244904 13.50694
279.316864 46.57692
279.357452 70.185181
279.438232 9.501894
279.484619 31.271259
279.513855 9.133152
279.57016 25.07143
279.717468 17.54167
279.746552 12.66447
279.780701 19.52961
279.868744 9.570313
280.002716 9.504167
280.340363 22.11842
280.370575 24.44643
280.40448 12.86029
280.818207 10.0
281.153839 184.869705
281.489014 8.015625
281.599884 32.760422
281.781281 7.347222
281.950317 7.541667
283.167511 594.668884
283.237091 7.8125
283.307434 6.797794
283.57077 3.5625
283.834442 6.082237
285.166565 23.223221
285.187225 429.496185
285.330963 9.067935
285.38385 3.0
287.140259 32.140091
287.319489 11.25
287.368347 34.15453
287.459473 64.207451
287.479889 20.5
287.626099 14.76645
287.668213 16.92614
287.793549 30.191179
288.656769 7.009615
289.15744 3289.322998
289.233948 22.52446
289.30542 13.56806
289.367706 44.707111
289.394287 4.008929
289.417236 8.160714
289.475677 9.785714
289.506378 20.533331
289.645416 17.602501
289.672424 19.16667
289.790863 9.674569
289.827423 21.005951
289.9263 22.56793
290.223328 23.216221
292.151306 29.82008
292.316956 7.520833
292.444122 10.0016
295.169128 872.894897
295.24408 14.42457
295.321747 16.06818
295.420319 21.6096
295.575806 16.605261
296.461884 11.4375
297.147705 121.888901
297.185181 718.475525
297.254486 7.389423
297.426849 9.026786
297.456909 15.5503
297.600372 12.0125
297.76358 8.45
298.279419 16.50139
301.701874 5.529605
305.22348 4.225
305.296204 7.347222
305.380951 9.007353
305.442841 20.972429
305.490265 18.0194
305.508606 15.27841
305.599731 41.511909
305.649353 7.390625
306.180725 24.944639
306.419556 9.8
306.675995 36.48098
307.071777 3.6125
307.169006 7319.849121
307.242828 41.595242
307.262756 42.305809
307.35556 58.278412
307.39032 64.668449
307.408752 10.51607
307.448334 48.515629
307.464661 40.728569
307.512512 46.545471
307.545624 17.94676
307.572662 51.47348
307.658966 42.522961
307.725983 25.50712
307.756439 33.00145
307.805328 15.0625
307.872589 20.105
307.91037 15.2025
308.059174 26.98983
308.248352 27.224541
308.275421 32.149391
308.336761 15.00368
308.611572 14.50272
308.710999 8.680555
308.966675 11.625
310.423187 10.03571
311.398682 9.375
313.177032 426.061707
313.533051 4.041667
313.803497 9.075
315.193512 91.24501
315.366882 33.347221
315.469208 14.36422
315.919891 9.583333
323.065552 33.940071
323.159302 19.34783
323.177124 39.221149
323.216217 52.881229
323.239563 34.21368
323.299316 11.88942
323.355835 11.0
323.37854 57.35714
323.425201 2.8125
323.4487 18.80871
323.475708 12.88889
323.99826 17.625
324.35495 9.002315
324.718597 14.02446
325.179443 10252.910156
325.270325 56.898029
325.324005 12.00417
325.345642 40.582191
325.36673 26.14205
325.43692 50.143311
325.476013 122.721901
325.502533 19.60294
325.533508 52.387161
325.552765 11.04167
325.572083 47.242069
325.596283 45.19355
325.646301 34.116379
325.684052 13.53309
325.702881 34.06805
325.755188 3.78125
325.885498 23.5448
325.917999 28.470591
326.004852 21.055679
326.249359 23.714279
326.293854 16.00481
326.677307 14.0194
327.113831 13.72454
327.473206 10.625
328.113007 40.267601
329.042664 26.875
330.86615 7.347222
336.623749 6.5
336.654846 14.175
339.89328 13.07853
340.503204 12.58266
341.042389 37.021118
341.084351 18.001789
341.112976 16.09091
341.147064 37.019779
341.200134 23.88068
341.228485 16.340281
341.257843 61.215981
341.287079 12.1125
341.382904 10.11343
341.47403 34.734581
341.60791 13.54688
341.652893 49.77586
341.808167 21.802999
342.070953 17.30625
342.136566 29.828569
342.18042 8.526786
342.231903 20.00625
342.367065 38.23053
342.405731 23.10096
342.598846 9.5
342.830658 132.336197
343.130463 178.851807
343.190308 21906.859375
343.389832 149.080399
343.417114 32.019291
343.454956 152.689896
343.509979 70.54953
343.533173 16.5625
343.565399 8.002315
343.611938 110.631302
343.668701 33.955299
343.722565 68.385429
343.75296 20.04167
343.778046 136.581299
343.867767 72.945953
343.988129 93.312988
344.048187 106.730499
344.069733 13.5625
344.106812 12.84615
344.313446 24.14205
344.668945 28.84848
344.750336 38.816311
344.81308 45.486408
344.89502 9.502976
345.075592 7.506945
345.109131 12.16898
345.332794 16.445311
345.963348 10.0
347.386902 23.50771
357.075897 15.00145
358.826935 17.01136
358.891541 61.42926
358.920898 12.625
358.971313 21.033331
359.038544 11.8125
359.143555 7.898026
359.288544 23.73472
359.364441 22.346979
359.974243 14.56516
361.004669 14.29167
361.136871 7.633152
361.201111 4301.773926
361.278381 35.126919
361.335236 9.5225
361.361603 27.691959
361.421204 15.10299
361.454285 21.01103
361.510132 38.493839
361.546875 15.21607
361.579926 33.937309
361.632874 15.3125
361.65979 9.024457
361.700531 14.00833
361.79538 17.578569
361.969696 23.648821
362.149078 17.137501
362.343262 30.808649
362.647583 21.25625
362.678894 3.006944
362.75647 5.5125
362.797089 12.18015
362.990448 6.543269
363.31601 26.42215
365.167633 19.52948
366.929321 10.12132
367.284729 5.0
367.711456 4.1
377.152496 28.11635
400.826752 27.797791
430.173157 50.003288
