>compound BetamethazoneDipropionate
>formula C28H37FO7 
>ionization [M+H]+
>parentmass 505.26
#inchi InChI=1S/C28H37FO7/c1-6-23(33)35-15-22(32)28(36-24(34)7-2)16(3)12-20-19-9-8-17-13-18(30)10-11-25(17,4)27(19,29)21(31)14-26(20,28)5/h10-11,13,16,19-21,31H,6-9,12,14-15H2,1-5H3/t16-,19-,20-,21-,25-,26-,27-,28-/m0/s1
#inchikey CIWBQSYVNNPZIQ
#Ion_Source LC-ESI
#Instrument qTof
#Compound_Source Isolated
#PI Sirenas
#Data_Collector Ed Esquenazi 
#Scan -1
#Precursor_MZ 505.26
#ExactMass 0.0
#Charge 1
#CAS_Number N/A
#Pubmed_ID N/A
#Smiles N/A
#INCHI_AUX N/A
#Library_Class 3
#SpectrumID CCMSLIB00000005601
#IonMode Positive
#UpdateWorkflowName UPDATE-SINGLE-ANNOTATED-BRONZE
#LibraryQualityString Bronze
#TaskID d19310cd93df49b68e9fcbec27720eb5
##Scan# 3
#SpectrumFile BetamethazoneDipropionate.mgf
#LibraryName fda_library.mgf
#MQScore -1
#Organism fda_library
#TIC_Query 0
#RT_Query -1
#MZErrorPPM -1
#SharedPeaks 0
#MassDiff 0
#LibMZ -1
#SpecMZ 505.26
#SpecCharge 0
#internalFilename spec-00000.mgf

>collision 10
101.058571 40.686279
105.070984 116.6362
106.071655 159.044205
107.049179 44.760422
107.084953 175.722107
108.451698 21.627819
108.704224 36.530899
109.064461 61.506889
109.102615 93.940651
115.034927 92.770103
115.073311 30.8939
116.038696 39.95385
117.067162 15.375
119.085976 351.524811
119.206757 10.06373
119.311768 17.694441
121.065331 114.914902
121.101402 148.057999
123.078171 35.980091
123.77784 17.3871
124.223129 11.15648
129.069839 15.34295
130.076981 50.97031
130.747009 14.00333
131.085648 114.927299
132.085358 85.900322
132.683319 12.33532
133.062607 28.377159
133.101868 155.589401
135.07872 209.531601
137.100647 10.77932
139.053452 20.00333
143.083008 53.382858
144.053329 10.02815
144.275711 25.53866
145.065048 54.316879
146.102875 53.806709
147.08017 533.306396
147.126053 10.16667
149.094238 218.659805
153.089203 51.793442
154.095245 27.741671
157.063324 20.27586
157.100983 51.176472
158.068695 56.047409
159.078568 202.485504
159.115509 63.895241
160.290878 12.80474
161.0979 184.511505
162.261337 21.34259
163.075531 42.487091
163.110306 52.3484
164.063004 12.2549
165.088226 61.922749
167.105865 212.036499
168.051254 35.775871
168.862534 12.14405
171.079376 376.229614
171.238968 21.78241
171.397827 30.54735
171.504547 11.375
173.095551 235.1371
175.072342 16.925211
175.553818 17.79594
176.09433 21.09643
177.094879 32.33662
179.083496 48.32349
181.094131 33.821739
183.079193 12.0
183.114395 38.496632
185.059998 70.135803
185.095612 312.583405
185.105621 43.085091
185.267471 15.20833
185.407639 13.64628
187.073944 174.919296
189.087692 122.444199
193.097916 28.989941
195.084229 46.093788
196.089081 40.880341
197.094223 179.839798
203.105682 28.703699
204.111008 29.067419
205.098465 13.21802
206.382187 12.52134
209.096527 65.424797
210.106354 168.8992
211.108841 95.343384
213.08786 34.714291
213.122772 45.31752
214.094421 25.94792
221.098099 111.376801
221.284027 13.45707
223.113434 170.942398
223.129669 62.009258
223.452499 19.019739
224.078461 25.493361
225.125748 80.997368
229.076126 47.14838
229.095825 54.04623
230.110214 79.4506
231.119278 44.835072
232.08963 38.035568
232.121155 116.282303
233.26239 13.7619
234.136276 21.39959
235.107437 181.784698
235.145981 67.118683
235.343216 17.20833
237.087051 26.669359
237.126846 242.511398
239.09874 28.156481
239.138 14.64015
241.096191 60.997051
241.11763 95.740257
243.095947 16.438601
243.114243 58.60207
245.091171 65.162849
245.142731 21.45343
247.103745 34.257092
248.117325 44.574371
249.124069 244.798798
249.162216 150.239395
250.140427 13.66912
251.101501 20.6
251.138504 87.107292
251.544266 10.01449
251.8423 14.69714
253.152664 100.538803
257.126068 35.90966
258.60733 17.777781
259.111664 35.482601
259.143341 10.34921
260.121674 144.458801
260.370728 31.569731
261.126495 125.954803
262.137451 193.880905
262.176819 31.5641
262.492096 10.10526
263.105164 14.75521
263.141876 594.283875
263.204803 15.83043
264.114685 46.05444
264.406403 23.320021
271.114655 23.65333
272.117615 181.007004
272.415619 10.5625
274.16214 15.7601
275.144348 15.13596
276.11319 10.375
276.149841 240.999405
277.46106 10.03409
278.163727 157.556305
278.245972 35.0928
278.946655 16.625
279.133972 36.908649
279.172852 467.151398
280.782928 14.75556
281.136627 31.436041
281.153534 20.418751
286.131104 168.689697
289.160889 143.7202
290.125977 41.17857
291.175385 243.428894
292.134003 21.36742
293.150635 30.09936
295.166779 22.09524
295.413452 45.533642
296.176727 15.0
301.158142 131.362106
304.140198 48.151112
306.156097 22.769609
309.186523 41.28656
313.52887 15.21185
314.120087 49.06694
315.186218 25.97961
319.16925 247.976303
321.160431 36.59877
327.175232 30.28269
334.182892 14.12927
335.204712 18.68873
335.231171 16.2288
337.180786 95.016777
340.160706 55.08511
357.901428 24.745609
