>compound Cefdinir
>formula C14H13N5O5S2 
>ionization [M+H]+
>parentmass 396.043091
#inchi InChI=1S/C14H13N5O5S2/c1-2-5-3-25-12-8(11(21)19(12)9(5)13(22)23)17-10(20)7(18-24)6-4-26-14(15)16-6/h2,4,8,12,24H,1,3H2,(H2,15,16)(H,17,20)(H,22,23)/b18-7-/t8-,12-/m1/s1
#inchikey RTXOFQZKPXMALH
#Ion_Source LC-ESI
#Instrument qTof
#Compound_Source Isolated
#PI Sirenas
#Data_Collector Ed Esquenazi 
#Scan -1
#Precursor_MZ 396.043
#ExactMass 0.0
#Charge 1
#CAS_Number N/A
#Pubmed_ID N/A
#Smiles N/A
#INCHI_AUX N/A
#Library_Class 3
#SpectrumID CCMSLIB00000004544
#IonMode Positive
#UpdateWorkflowName UPDATE-SINGLE-ANNOTATED-BRONZE
#LibraryQualityString Bronze
#TaskID d19310cd93df49b68e9fcbec27720eb5
##Scan# 1
#SpectrumFile Cefdinir.mgf
#LibraryName fda_library.mgf
#MQScore -1
#Organism fda_library
#TIC_Query 0
#RT_Query -1
#MZErrorPPM -1
#SharedPeaks 0
#MassDiff 0
#LibMZ -1
#SpecMZ 396.043
#SpecCharge 0
#internalFilename spec-00000.mgf

>collision 10
102.000053 561.36322
104.048874 68.745163
106.028976 64.698143
107.061089 27.34959
108.04335 211.063599
112.037781 47.813499
116.026855 25.949551
117.045143 27.991739
119.059181 27.451759
121.076218 135.867096
123.023956 127.126503
124.037437 42.506851
124.051613 77.15583
125.349991 32.49641
125.382683 29.00182
126.01165 5833.683105
126.055534 217.8078
126.193741 33.642109
126.219208 26.409361
127.015678 59.314999
127.977219 92.006653
128.026505 79.541443
129.011292 25.44833
132.043442 25.02347
135.056015 96.564629
135.995026 43.918701
136.020813 49.057388
138.035278 211.828995
138.996246 24.35597
140.045532 46.755791
142.005005 338.688995
142.970718 91.893387
144.021805 45.69305
145.038467 26.85605
147.054794 166.921707
148.040085 79.454742
149.067398 67.213028
151.081604 29.87879
152.016098 1210.23999
152.066788 29.033239
153.049728 63.824909
154.028748 97.137047
155.063416 76.203903
156.020782 52.694401
157.005692 34.943989
157.97908 31.35813
161.033936 92.556358
164.015762 285.149292
165.063843 93.210999
166.029617 246.974792
170.000717 51.624031
170.026886 4080.559082
170.087189 31.134451
170.167511 26.754789
170.205597 28.58901
170.219284 28.03788
173.083099 28.712839
175.047134 123.746803
179.025085 130.496201
181.019119 108.177597
181.042404 173.756393
181.989258 49.012402
182.026413 311.078094
182.603409 26.774509
183.03302 937.660828
183.995865 50.687141
187.026108 234.859497
189.026352 42.79726
193.055389 41.557449
197.010651 209.427002
198.018936 193.689301
198.992126 44.889759
199.026962 1706.833008
207.022507 430.811493
207.039459 57.886292
207.575134 26.192289
208.00412 32.513611
209.011749 1503.369995
209.709473 24.7034
209.972855 27.325211
211.028656 436.268494
211.994141 66.455597
213.001343 771.940186
217.985703 24.444241
225.657318 39.628971
225.68187 82.58461
225.743927 24.35746
225.857956 47.42065
225.910919 39.189499
226.004272 36.3909
226.075714 42.298851
226.335846 52.554871
226.979309 34.620571
227.023438 24235.900391
227.27327 54.768261
227.362411 32.968948
227.438126 43.301029
227.465973 54.15472
227.498795 51.559479
227.54129 35.928551
227.576706 61.892921
227.610825 60.844818
227.661377 29.73778
227.738434 28.252729
237.080856 37.904919
238.009933 40.861382
243.000198 1097.900024
245.015594 290.729187
252.984329 65.034393
253.026337 184.841507
253.989639 40.74667
256.034027 28.65803
258.050568 28.68775
259.059967 25.32008
261.021393 45.958302
263.033051 26.38484
264.023682 30.214569
270.995636 2717.677979
271.064117 32.956921
271.097382 30.50589
288.038513 26.34111
290.031433 27.24004
291.035858 182.1483
302.068634 40.980801
306.049988 56.765732
309.043884 35.620369
316.030151 43.0354
317.021149 78.545937
317.966949 42.689041
319.031403 106.093201
322.055481 110.342201
324.057434 135.632904
332.024078 56.430641
334.033997 29.33847
335.026184 392.056396
350.037628 163.457108
352.008087 31.596081
362.048065 45.196171
363.023132 236.541397
368.047089 189.248199
378.030334 96.162804
393.359467 28.36908
393.490265 76.741371
393.548004 53.484241
393.578094 40.992851
393.620087 37.336441
393.815399 40.58437
394.697906 41.5812
394.738007 42.783428
395.975708 46.077518
396.043091 21315.439453
396.344238 83.205383
396.383698 46.494629
396.471375 84.076332
396.511078 28.57671
396.532379 29.480539
396.558411 64.181587
396.604797 65.79689
396.649414 26.728279
396.704529 78.368843
396.775055 51.818161
396.796661 32.841869
396.867798 36.99416
396.911285 54.457161
396.935669 47.061569
397.247131 28.128969
400.022217 29.149401
