>compound 2-heptyl-3-hydroxy 4-quinolone
>formula C16H21NO2 
>ionization [M+H]+
>parentmass 260.16450536409053
#inchi InChI=1S/C16H21NO2/c1-2-3-4-5-6-11-14-16(19)15(18)12-9-7-8-10-13(12)17-14/h7-10,16,19H,2-6,11H2,1H3
#inchikey IRNQEHWHRAZAPL
#Ion_Source DI-ESI
#Instrument Hybrid FT
#Compound_Source Commercial
#PI Dorrestein
#Data_Collector WMoree
#Scan -1
#Precursor_MZ 260.0
#ExactMass 259.157
#Charge 1
#CAS_Number 108985-27-9
#Pubmed_ID N/A
#Smiles N/A
#INCHI_AUX N/A
#Library_Class 1
#SpectrumID CCMSLIB00000072564
#IonMode Positive
#UpdateWorkflowName UPDATE-SINGLE-ANNOTATED-GOLD
#LibraryQualityString Gold
#TaskID 5ed77b6b02b142c48610bf40947c9c0c
##Scan# 1
#SpectrumFile PQS_260_MS2_FT_commercial.mzXML
#LibraryName gnps_library.mgf
#MQScore -1
#Organism FT_data_reupload
#TIC_Query 0
#RT_Query -1
#MZErrorPPM -1
#SharedPeaks 0
#MassDiff 0
#LibMZ -1
#SpecMZ 260
#SpecCharge 0
#internalFilename spec-00000.mgf

>collision 10
70.861313 802.0
70.867569 1055.0
71.076279 1266.0
71.511322 1413.0
71.691017 1303.0
71.772652 746.0
71.774719 836.0
71.872444 914.0
72.282951 782.0
72.494545 1052.0
73.968155 905.0
74.70237 814.0
75.642891 746.0
75.705566 859.0
75.829956 814.0
76.211693 934.0
76.258331 966.0
76.299919 1059.0
76.486702 832.0
76.755074 800.0
76.780212 812.0
77.185081 1135.0
77.434181 774.0
77.476746 771.0
77.595779 830.0
77.663574 823.0
78.757011 970.0
79.34668 784.0
79.687759 870.0
80.482864 870.0
80.710251 782.0
80.954399 941.0
81.405174 1431.0
81.68354 780.0
82.056946 806.0
82.646034 1006.0
82.799629 752.0
83.68483 1140.0
85.559662 859.0
85.599159 794.0
85.625305 815.0
85.783585 843.0
85.794891 831.0
87.028297 782.0
87.046776 802.0
87.483971 1183.0
87.531082 1729.0
87.636131 879.0
88.242661 813.0
88.423302 775.0
88.542442 1338.0
88.587646 1090.0
89.017555 814.0
89.026489 820.0
89.146584 769.0
90.049751 886.0
90.336716 797.0
90.524139 912.0
90.6791 880.0
90.893929 781.0
92.113701 744.0
92.165764 744.0
92.252716 773.0
92.860382 1143.0
92.936806 1083.0
93.261642 886.0
94.154152 821.0
94.202927 799.0
94.262299 1009.0
94.373329 980.0
94.660309 1091.0
95.863503 922.0
96.101624 1058.0
96.36499 882.0
96.480423 797.0
96.542328 876.0
96.550568 837.0
97.2117 879.0
97.613266 909.0
97.730637 1305.0
98.101402 787.0
98.124954 814.0
98.215248 935.0
98.230392 844.0
99.112617 828.0
100.143906 918.0
100.281708 865.0
100.774399 946.0
100.855217 754.0
100.881516 777.0
100.987114 1246.0
102.264992 1235.0
102.380005 1305.0
102.743233 812.0
103.163887 832.0
103.808731 775.0
103.98439 831.0
104.753319 924.0
105.780441 764.0
105.830566 1629.0
106.315231 936.0
106.509056 950.0
106.510178 845.0
107.642609 784.0
109.501976 881.0
109.791718 937.0
109.791794 937.0
110.028206 1045.0
110.464569 754.0
110.621201 751.0
110.947411 765.0
112.42009 795.0
112.698105 859.0
112.95192 863.0
113.488548 829.0
113.978027 797.0
116.2146 755.0
116.488098 914.0
116.499283 876.0
116.998802 969.0
117.869545 809.0
118.06086 757.0
118.531532 932.0
119.302544 835.0
120.191856 868.0
120.231781 756.0
120.325546 945.0
121.515228 782.0
121.708694 802.0
124.167427 794.0
124.691032 876.0
126.260597 751.0
127.456238 1062.0
127.726845 807.0
129.566269 813.0
129.784576 769.0
130.06517 1252.0
130.124985 1177.0
132.543518 911.0
134.060043 1677.0
134.20668 788.0
134.370758 1092.0
135.271545 853.0
138.481735 805.0
140.418961 922.0
141.757034 782.0
143.459595 952.0
144.582001 764.0
146.059921 1541.0
146.083832 893.0
146.34137 770.0
147.06781 3790.0
147.074219 1177.0
148.835968 882.0
149.120605 813.0
151.485901 890.0
153.476013 835.0
153.849518 916.0
154.445343 882.0
155.973511 1078.0
156.228668 760.0
156.566711 784.0
156.984177 1104.0
158.836594 915.0
159.174347 1082.0
160.110168 770.0
160.33902 904.0
160.76239 872.0
162.158478 813.0
162.426285 927.0
163.472351 904.0
164.28746 794.0
164.556992 1091.0
165.228561 795.0
165.927597 889.0
166.256836 781.0
166.593964 790.0
167.66864 917.0
169.437317 864.0
169.672562 824.0
171.958817 1210.0
172.075684 821.0
172.457047 745.0
174.055054 806.0
175.059799 3862.0
175.061417 34830.0
175.062836 187274.0
175.064453 7404.0
176.069473 1036.0
176.070694 11633.0
176.289276 822.0
176.346466 886.0
178.053879 1028.0
179.898117 819.0
180.781387 809.0
181.096558 935.0
182.828873 905.0
187.086975 778.0
187.171936 756.0
188.069016 2702.0
188.070648 20426.0
189.078415 9231.0
189.291748 867.0
189.92157 830.0
190.086304 14810.0
190.732224 770.0
192.080887 900.0
195.626373 900.0
196.532394 804.0
198.439163 760.0
200.10701 1025.0
202.086273 6302.0
204.101776 5184.0
205.286148 865.0
206.226868 1102.0
206.999512 855.0
207.500519 925.0
208.355148 899.0
208.926331 1043.0
208.929214 750.0
209.169815 1063.0
210.066803 815.0
210.663803 754.0
211.121872 894.0
211.361069 856.0
212.822708 864.0
213.972717 885.0
214.09021 938.0
215.537888 1409.0
215.710175 765.0
215.765411 749.0
215.818527 1015.0
216.783173 1359.0
217.787445 903.0
217.846252 847.0
217.918243 778.0
218.117889 1088.0
219.791321 789.0
222.187332 983.0
222.461746 788.0
222.957214 755.0
227.304626 913.0
230.418594 1249.0
230.688461 920.0
230.893219 762.0
231.524155 844.0
231.75412 768.0
232.160675 1054.0
232.169571 3095.0
234.784332 915.0
236.362869 932.0
237.192017 948.0
242.153992 1555.0
242.793243 1130.0
243.260162 875.0
246.47226 1017.0
248.978516 835.0
249.036575 777.0
255.146759 838.0
257.49118 757.0
257.885223 814.0
259.626831 1027.0
260.211731 890.0
260.791626 1258.0
262.663788 891.0
262.956146 798.0
266.284515 785.0
266.989075 875.0
267.025269 1221.0
269.679504 1044.0
273.544006 816.0
275.128479 907.0
275.279297 1066.0
278.476318 1070.0
282.450562 942.0
282.759155 768.0
287.546021 769.0
288.795532 1501.0
291.367157 759.0
293.682678 955.0
293.947357 817.0
295.846497 890.0
297.019775 877.0
301.17215 825.0
301.29599 912.0
303.10672 975.0
307.76416 794.0
309.954285 982.0
312.074982 909.0
312.636566 932.0
313.662079 829.0
314.121368 775.0
314.437897 746.0
318.164886 854.0
321.308716 886.0
323.091858 857.0
323.847992 889.0
326.023529 846.0
328.401184 898.0
329.092407 994.0
329.64389 1847.0
331.875763 837.0
333.412292 830.0
335.437988 758.0
336.606842 1260.0
337.807953 1194.0
339.494232 753.0
339.745209 1069.0
342.843414 754.0
348.562408 1108.0
348.580811 940.0
348.791656 825.0
351.637482 792.0
352.085632 900.0
353.234528 783.0
357.128967 1112.0
357.809753 912.0
359.22168 999.0
360.825836 817.0
362.059357 753.0
363.7789 763.0
364.886047 1068.0
365.143463 1016.0
366.266022 755.0
367.730469 1449.0
382.251221 1136.0
382.605133 1163.0
384.055542 997.0
389.830536 762.0
396.420135 899.0
399.361755 813.0
405.17868 1125.0
407.987579 1012.0
416.196625 1041.0
416.722687 875.0
421.207428 1023.0
421.674713 1027.0
423.86792 1233.0
429.985962 942.0
434.908264 1008.0
442.493774 873.0
447.139435 1293.0
450.166809 774.0
450.168152 774.0
456.021057 854.0
456.195251 766.0
457.124786 753.0
459.223145 951.0
461.604858 1438.0
462.273193 825.0
463.490967 1238.0
465.181305 758.0
465.239807 1005.0
466.95874 956.0
467.895142 934.0
484.622589 1319.0
485.906677 841.0
486.087311 892.0
488.478027 836.0
488.926819 851.0
494.748474 1068.0
507.691589 745.0
508.500122 745.0
509.073639 838.0
509.610748 777.0
509.646729 1137.0
509.682678 855.0
512.769043 803.0
515.071228 771.0
516.822937 785.0
517.503662 990.0
518.150757 890.0
519.380493 1312.0
520.703613 1064.0
526.391113 841.0
527.810852 1355.0
528.583496 924.0
531.1604 1051.0
533.407776 1152.0
535.214905 1204.0
536.026428 2187.0
536.035889 982.0
536.051025 1163.0
536.064331 993.0
536.08136 818.0
536.128723 748.0
536.155273 913.0
536.257629 2949.0
536.270935 2367.0
536.287964 827.0
538.79718 812.0
541.223694 1156.0
541.569641 758.0
542.154358 825.0
544.122803 920.0
544.726685 910.0
548.477539 1151.0
556.975769 835.0
560.365173 3000.0
561.267273 850.0
561.337952 892.0
562.622803 790.0
563.281006 1134.0
564.320618 784.0
568.839539 1576.0
569.707092 963.0
569.81842 871.0
569.831238 2024.0
571.822876 968.0
571.855225 830.0
571.988953 1121.0
572.019165 900.0
572.04071 979.0
572.06665 3048.0
572.853149 879.0
572.868286 1123.0
572.889954 1011.0
572.898621 764.0
572.935425 802.0
572.985168 1067.0
572.996033 1039.0
573.000305 1034.0
573.011169 1221.0
573.039307 1511.0
573.06311 1605.0
573.071777 1436.0
573.093445 5336.0
573.115112 9987.0
573.128113 9962.0
573.141113 7657.0
573.15625 6723.0
573.173584 3023.0
573.184387 2001.0
573.197388 812.0
573.210388 1280.0
573.227722 3167.0
573.251587 2007.0
573.26239 3405.0
573.277588 3127.0
573.288391 4513.0
573.301392 4694.0
573.318726 3246.0
573.32959 1464.0
573.340454 11513.0
573.349121 6804.0
573.362122 7641.0
573.370789 7392.0
573.398926 2671.0
573.414124 798.0
573.446655 1183.0
573.924072 1708.0
574.635132 1443.0
575.579468 1789.0
575.752075 4540.0
576.00354 1832.0
576.218018 832.0
576.226746 1070.0
576.23114 1170.0
576.963318 1038.0
577.979187 831.0
579.27063 781.0
581.455933 963.0
583.007141 985.0
583.029602 2182.0
584.837219 1050.0
585.313416 874.0
586.216125 1100.0
586.254639 2646.0
586.34082 775.0
586.479126 2440.0
587.212585 784.0
588.271667 1213.0
589.985779 1024.0
589.994934 1106.0
591.064148 904.0
591.532104 1284.0
594.36499 1291.0
594.388306 979.0
594.483826 2140.0
594.546753 1290.0
594.56543 1348.0
594.579407 1980.0
594.593384 2240.0
594.630676 778.0
596.576782 837.0
596.896057 770.0
596.919556 1643.0
596.964233 1556.0
597.032349 1057.0
597.060547 768.0
597.079346 1099.0
597.095825 1455.0
597.112305 2423.0
597.124023 2149.0
597.919739 1164.0
598.127258 787.0
598.33728 775.0
598.547424 1072.0
598.684448 1432.0
599.188293 970.0
