>compound Naftopidil
>formula C24H28N2O3 
>ionization [M+H]+
>parentmass 393.2172692080905
#inchi InChI=1S/C24H28N2O3/c1-28-24-11-5-4-10-22(24)26-15-13-25(14-16-26)17-20(27)18-29-23-12-6-8-19-7-2-3-9-21(19)23/h2-12,20,27H,13-18H2,1H3
#inchikey HRRBJVNMSRJFHQ
#Ion_Source LC-ESI
#Instrument qTof
#Compound_Source Isolated
#PI Sirenas
#Data_Collector Ed Esquenazi 
#Scan -1
#Precursor_MZ 393.219
#ExactMass 0.0
#Charge 1
#CAS_Number N/A
#Pubmed_ID N/A
#Smiles N/A
#INCHI_AUX N/A
#Library_Class 3
#SpectrumID CCMSLIB00000004518
#IonMode Positive
#UpdateWorkflowName UPDATE-SINGLE-ANNOTATED-BRONZE
#LibraryQualityString Bronze
#TaskID d19310cd93df49b68e9fcbec27720eb5
##Scan# 2
#SpectrumFile Naftopidil.mgf
#LibraryName fda_library.mgf
#MQScore -1
#Organism fda_library
#TIC_Query 0
#RT_Query -1
#MZErrorPPM -1
#SharedPeaks 0
#MassDiff 0
#LibMZ -1
#SpecMZ 393.219
#SpecCharge 0
#internalFilename spec-00000.mgf

>collision 10
100.076118 1722.692993
100.16523 5.352027
100.253143 11.97692
100.388199 11.30385
101.265442 17.66667
102.054062 19.823589
102.089722 116.551102
102.470367 11.20667
104.046127 16.81333
105.056206 6.626471
106.065407 195.192398
107.050049 54.755741
108.079796 133.565002
110.092331 21.424999
110.443466 12.02606
112.880028 22.86692
113.081001 14.48658
113.480476 9.643841
113.51754 6.014535
113.90049 4.849138
114.0914 5720.393066
114.137718 41.852329
114.152206 11.45
114.159683 7.40051
114.178558 11.06406
114.230278 11.45143
114.256584 8.652083
114.285782 18.85976
114.307289 20.232691
114.321907 9.544444
114.360489 5.0625
114.487053 11.21944
114.501984 10.08
114.513939 21.384041
114.56147 7.40051
115.055817 115.643799
115.445709 5.544118
116.072372 19.111931
117.056046 145.861099
117.069695 48.081821
118.064438 1123.072998
118.254494 9.009
118.375854 7.155769
118.671211 11.07424
120.043137 766.839722
120.082237 39.8811
120.462402 11.44537
121.053391 645.202393
121.064407 61.18504
122.060509 252.321396
122.09433 12.29474
123.077614 21.228121
124.074516 29.53706
125.616394 28.49004
126.090401 183.082397
127.056816 17.06706
127.100616 56.43132
128.973862 10.41524
129.070694 404.611511
129.096649 11.04032
130.06311 25.78409
131.063461 13.27206
131.07605 14.18843
132.079849 21.33736
133.052399 87.294319
133.384766 4.800926
134.060532 1363.796021
134.093536 19.864519
134.237274 10.842
134.326599 9.417753
134.871719 32.600201
135.079636 164.038498
135.770737 6.446429
136.075531 5788.041992
136.125107 58.311668
136.14122 17.081329
136.159317 6.659524
136.265686 11.38227
136.344467 9.771429
136.586838 14.87935
137.273865 4.9
141.070663 110.729401
141.101562 29.284439
143.049179 31.09454
143.117554 55.515362
144.056686 20.401831
144.085678 15.86306
144.168472 37.069248
145.064194 42.234638
145.073792 19.033331
146.060577 24.101789
146.081207 55.51104
147.053955 34.602501
147.065598 23.28167
147.3983 19.05633
148.014771 12.025
148.075089 581.669189
148.097504 2.833333
148.503906 6.46579
149.057053 53.80341
149.083298 4341.929199
149.134949 30.4491
149.213089 16.02667
149.250061 18.45669
149.284622 7.272059
149.302353 10.01071
149.398422 7.60119
149.474426 4.981452
149.544403 4.434615
149.57843 9.91424
150.059814 24.33392
150.091217 7628.058105
150.142914 59.33054
150.175446 13.45
150.187195 17.829069
150.200272 11.6
150.215607 16.83
150.255737 31.98801
150.311203 4.889286
150.341003 8.807407
150.384003 18.151699
150.467148 9.363333
150.489136 11.80643
151.032761 35.215698
151.170044 9.812903
151.229553 6.867223
151.306671 13.43125
151.987747 11.9422
153.066605 78.577477
154.080139 29.7391
154.26265 23.402269
155.047684 15.07206
155.084747 1060.246948
156.398895 6.679348
156.44693 9.527273
157.06398 1638.725952
157.226318 11.23478
157.243469 8.664362
157.252014 20.20237
157.352615 12.03115
159.081955 29.31954
159.372284 15.18908
160.075699 55.100868
160.098053 15.70625
161.081116 87.178329
161.106644 24.157141
161.424637 19.09906
161.55191 4.538462
161.81308 7.632692
161.971024 8.846429
162.06572 21.4172
162.091431 2653.684082
162.145767 13.12675
162.339172 10.28
162.375809 17.797371
162.510696 9.377325
162.655548 11.55556
162.868011 14.8
163.268265 10.25714
164.106033 387.970306
165.07045 260.158508
165.444305 5.000806
166.11264 60.359169
167.086075 43.427792
169.061874 15.95
171.077179 223.990707
173.105911 17.944639
174.090302 194.224899
174.1129 150.533096
175.087814 150.147705
175.123291 163.503906
176.106918 157.028793
176.161392 7.103125
176.228897 11.55625
177.103149 494.327087
178.108444 419.444702
178.119171 101.899498
178.289734 7.606452
178.787079 15.40278
181.048767 38.634041
181.099426 34.865822
182.011169 5.242241
182.039337 9.45625
182.21933 16.780001
182.310532 18.245001
182.376312 8.757433
183.017334 4.004167
183.080612 5761.255859
183.138687 9.25625
183.153061 28.375019
183.16774 4.272727
183.207596 29.94906
183.247314 11.25931
183.340591 28.49847
183.379532 7.42402
183.455002 8.576961
183.478592 8.902083
183.567963 12.20053
183.69194 12.40152
183.777191 16.044741
184.624146 13.14325
185.095245 244.278503
187.086166 21.73152
188.103012 102.946404
189.102127 1064.845947
189.148056 20.52186
189.244232 9.459314
189.268326 17.480221
189.354004 19.22542
189.593643 7.736112
189.957657 8.69138
190.077454 5.869444
190.110062 8931.919922
190.16864 50.602909
190.187042 26.009501
190.218643 12.20409
190.23584 11.81275
190.261047 15.84615
190.304749 40.387081
190.316254 53.47942
190.337646 15.00714
190.353867 16.178089
190.384537 6.402941
190.514099 10.41667
190.604202 13.92135
190.716354 15.18825
190.732101 25.345119
190.761856 16.25104
191.013962 8.75577
191.246567 8.576471
191.259186 13.81739
191.841766 4.204167
192.097397 26.548771
192.125031 500.596802
193.133118 2217.958984
193.195801 17.20167
193.285202 6.859524
193.309387 8.805555
193.328918 17.973761
193.42067 6.020162
193.541672 4.649
193.924362 6.688095
194.141296 35.45079
194.247757 9.93629
194.409012 9.07258
197.096329 16.404779
199.07869 15.40032
201.090393 79.802429
201.101227 7.800676
201.136703 35.310749
202.10939 41.0168
203.117264 756.221375
203.410706 5.983696
203.560684 8.664831
203.918152 5.003333
203.977768 5.400806
204.042374 7.225
204.100525 61.88427
204.16571 10.9225
204.256104 9.825807
204.272079 16.002081
204.344498 9.080556
204.382126 96.772018
204.514725 4.000926
204.674026 6.514189
204.962677 10.02311
205.13353 18686.539062
205.176956 4.661364
205.193878 97.829887
205.239899 10.85952
205.261673 10.92672
205.274124 21.8276
205.30452 43.121811
205.318359 16.51907
205.330154 22.09008
205.354919 9.145689
205.400375 15.66431
205.414963 38.504009
205.428375 4.825
205.447037 15.79219
205.463242 32.153782
205.475143 51.124352
205.514404 28.548189
205.526871 14.10227
205.550812 58.074692
205.577072 20.00819
205.586975 11.36842
205.600876 14.41591
205.629547 21.178129
205.640656 6.075
205.670547 18.792021
205.744736 11.162
205.75972 25.65612
205.775604 18.026039
205.848175 39.429211
205.920441 22.40357
206.207535 28.23896
206.381393 16.53426
206.439636 7.202941
206.579529 11.61452
206.656387 17.77861
206.683746 9.283334
207.094986 5.85
208.112503 68.913643
208.20787 11.4
208.458893 15.00125
215.112396 23.16408
215.126526 6.081818
216.12352 103.718498
217.13205 225.478806
217.900864 13.63929
218.140945 92.592857
219.149734 1105.469971
219.270172 10.81739
219.298019 31.50248
219.492844 10.14337
219.52681 12.4266
220.120575 25.258739
226.122467 186.875198
227.0401 9.409042
229.132965 33.755711
229.484924 22.283739
229.909363 14.705
230.112656 35.72308
230.347473 6.03141
230.738129 9.910345
230.944382 7.102273
231.122223 16.801519
231.149063 2906.976074
231.249268 10.79397
231.27861 26.63262
231.3797 13.87195
231.521393 18.997101
231.989868 12.615
232.089966 8.707559
232.458954 5.59527
232.626007 16.98049
233.130539 77.723068
233.164856 1264.689941
233.808243 9.902273
233.871689 16.13158
233.92012 15.58555
233.992477 11.6225
234.021057 24.42564
234.102188 18.32268
234.657333 9.363333
235.10759 9.467222
235.144287 10617.620117
235.208572 36.508339
235.267975 17.20479
235.299576 51.31004
235.320358 26.209579
235.364822 26.1954
235.3983 45.43095
235.420456 10.14405
235.450943 15.22237
235.465378 8.612755
235.572647 10.54464
235.585861 26.60807
235.621216 43.781281
235.723999 14.3347
235.748398 2.0
235.774902 20.48407
235.865997 36.86393
235.920471 18.819771
236.676804 10.04853
236.801773 12.20068
240.135223 59.811771
242.678772 14.00357
244.040512 20.608999
244.105026 24.020411
244.134003 3906.751953
244.201035 4.296052
244.268677 10.29423
244.317917 8.8
244.36319 27.629391
244.452698 7.47
244.497452 7.345454
244.520859 16.977909
244.67424 17.00992
244.704544 11.24039
244.813995 15.125
247.143631 56.1661
247.728592 12.55201
247.753372 4.70625
247.819183 13.06667
247.848785 12.60143
247.954208 5.338889
248.432541 19.102131
248.468292 9.861734
248.769775 10.4
249.078705 59.95467
249.115585 9.021491
249.159927 14730.009766
249.224808 60.871342
249.246246 11.46532
249.297699 27.224039
249.333084 14.21517
249.390823 78.511963
249.417709 46.50901
249.448196 55.760731
249.471619 33.05835
249.541199 32.97393
249.562134 40.52573
249.585785 35.675739
249.631516 47.59771
249.656738 11.20308
249.695465 40.687229
249.749298 17.09441
249.78157 32.19157
249.81369 10.67201
249.860046 18.75589
250.690689 18.20027
251.614685 6.4
256.131989 37.172489
258.144409 12.76739
263.137482 20.625
264.146332 326.138611
265.15329 246.392807
270.148865 211.252304
272.527954 30.774099
330.499664 18.831841
357.115753 9.89
357.199463 32.928089
357.230286 11.88906
360.173431 11.82353
364.182739 5.208333
373.184723 9.626087
373.385834 5.955882
373.431946 6.469231
374.192169 23.628361
375.206085 1590.641968
375.370605 4.705882
375.574615 15.00409
375.625885 8.2375
375.667236 4.209
375.741425 6.023113
376.206177 16.448021
376.753784 7.428125
377.071167 15.62045
385.009399 4.92
388.280304 14.6875
389.303131 9.248
389.561859 14.00952
389.933136 13.23462
389.981995 14.67533
390.572021 15.00933
390.599152 79.095901
390.637299 59.971161
390.666626 13.21667
390.688293 110.682297
390.717438 29.71888
390.743408 126.400703
390.77478 343.904114
390.823425 81.18129
390.85791 333.467194
390.896576 368.516388
390.964081 231.029297
390.987671 126.737503
391.008484 177.773193
391.056824 333.465302
391.113678 300.421204
391.155212 37.215389
391.202118 885.017395
391.29718 54.400002
391.340851 103.416801
391.389893 12.67656
391.415405 51.767208
391.502686 54.762798
391.632751 144.364395
391.74588 115.468697
391.809021 71.592148
391.92514 147.491699
392.076599 211.951202
392.203918 50.73901
392.223877 26.000959
392.285309 67.677589
392.374146 14.73611
392.45871 6.497581
392.502686 51.138142
392.574066 37.85313
392.593201 68.801788
392.67923 10.72911
392.729858 31.66515
392.803436 82.987167
392.850372 166.7435
392.955505 327.167389
393.131714 442.699799
393.154175 172.654907
393.219421 285221.40625
393.430786 8.400455
393.533508 9.269444
393.859161 98.331642
393.891235 195.352493
393.931274 249.748993
394.003418 61.422161
394.028717 136.856003
394.095001 230.080795
394.320648 173.533401
394.487854 96.55336
394.562927 45.433659
394.667267 196.347107
394.690552 75.464973
394.715637 32.192791
394.73764 87.919662
394.762268 20.86026
394.855011 101.685898
394.952271 87.444038
394.999603 176.070297
395.049103 68.049332
395.280762 100.155701
395.396271 73.1465
395.576294 82.703201
395.606598 24.805519
395.716461 44.301971
395.870361 15.21111
395.891144 23.830971
395.932678 4.249
395.972778 26.483549
396.036163 32.55777
396.071472 22.56842
396.24704 14.62563
396.313141 22.962429
396.527954 21.002171
396.773865 22.56411
396.957886 16.88118
397.001953 5.938793
397.123779 12.2133
397.367035 4.23
397.491302 11.05708
397.658203 9.106667
397.720642 4.400758
397.935303 22.803949
397.965149 9.36
398.08847 4.753125
398.456787 11.71201
398.484161 6.223113
398.624695 20.005739
399.339355 14.41689
399.721252 24.208
400.083038 8.448076
401.016479 9.187931
405.353943 8.412755
405.599121 6.242105
408.344055 4.667593
414.327576 11.38824
414.659973 10.55858
434.362305 10.52273
454.265167 15.20119
486.362244 30.25106
514.361938 5.35625
599.486206 35.680382
734.913147 26.08638
751.384766 9.605769
1066.221191 11.72089
1071.428711 8.459507
1178.72876 12.66777
1652.388062 15.51905
