>compound MycophenolateMofetil
>formula C23H31NO7 
>ionization [M+H]+
>parentmass 434.218414
#inchi InChI=1S/C23H31NO7/c1-15(5-7-19(25)30-13-10-24-8-11-29-12-9-24)4-6-17-21(26)20-18(14-31-23(20)27)16(2)22(17)28-3/h4,26H,5-14H2,1-3H3/b15-4+
#inchikey RTGDFNSFWBGLEC
#Ion_Source LC-ESI
#Instrument qTof
#Compound_Source Isolated
#PI Sirenas
#Data_Collector Ed Esquenazi 
#Scan -1
#Precursor_MZ 434.219
#ExactMass 0.0
#Charge 1
#CAS_Number N/A
#Pubmed_ID N/A
#Smiles N/A
#INCHI_AUX N/A
#Library_Class 3
#SpectrumID CCMSLIB00000004630
#IonMode Positive
#UpdateWorkflowName UPDATE-SINGLE-ANNOTATED-BRONZE
#LibraryQualityString Bronze
#TaskID d19310cd93df49b68e9fcbec27720eb5
##Scan# 2
#SpectrumFile MycophenolateMofetil.mgf
#LibraryName fda_library.mgf
#MQScore -1
#Organism fda_library
#TIC_Query 0
#RT_Query -1
#MZErrorPPM -1
#SharedPeaks 0
#MassDiff 0
#LibMZ -1
#SpecMZ 434.219
#SpecCharge 0
#internalFilename spec-00000.mgf

>collision 10
103.054245 307.977997
109.063477 522.835693
110.788094 27.3375
111.962654 34.714291
112.777847 19.3288
113.061745 60.000511
113.344604 27.1129
113.388237 23.445311
113.399437 29.56793
113.424034 47.524712
113.430992 55.220039
113.451683 268.847107
113.47625 81.470627
113.496124 286.201111
113.516792 99.013351
113.530365 74.620193
113.538162 176.486603
113.550018 199.599701
113.578972 119.5186
113.588867 311.05069
113.625389 227.319107
113.644814 72.34906
113.662819 96.816437
113.684135 83.531059
113.695679 121.587502
113.724098 88.000603
113.736259 44.08036
113.754662 88.702843
113.782417 19.700001
113.797653 30.35714
113.81797 63.138569
113.831635 23.38007
113.84005 25.22473
113.850876 39.51524
113.871071 23.81818
113.876968 18.96023
113.89389 28.04167
113.906204 56.076199
113.93235 75.520554
113.967018 50.569771
114.047829 189.132904
114.071404 169.241302
114.091728 388409.1875
114.423576 371.657501
114.48452 171.847595
114.507576 204.603195
114.516388 151.067902
114.551331 128.786896
114.559036 38.14122
114.568054 149.033493
114.603828 133.923096
114.627441 373.001312
114.639091 95.180893
114.661194 266.852692
114.693825 163.299301
114.702621 71.103882
114.721077 230.030502
114.755783 127.903503
114.78495 26.00548
114.796768 28.38291
114.813728 83.321091
114.829391 121.049103
114.854324 48.888199
114.890511 166.548599
114.913155 62.655289
114.936401 72.958969
114.946785 23.191179
114.965103 116.377899
114.981155 33.121319
115.053429 62.426281
115.144089 50.239891
115.165619 24.399019
115.245766 43.28125
115.259171 47.896469
115.276863 27.511971
115.292183 23.12348
115.31089 38.809689
115.338791 56.376148
115.369095 83.254311
115.404076 32.613571
115.440002 39.031891
115.534912 23.009529
115.597069 37.541672
115.605766 25.828409
115.670921 64.118828
115.738632 27.633261
115.9244 44.538761
116.071983 38.67905
116.188538 32.04327
116.59819 107.762901
116.655876 30.00083
116.82859 20.81641
116.858673 34.03093
116.998138 29.24032
121.063286 36.25568
121.069878 39.173161
125.130753 31.516109
128.058563 26.266451
130.084839 131.012497
131.335098 30.50568
131.470718 53.8064
131.477707 35.302231
131.614609 33.074409
131.787766 22.880951
132.101837 13170.490234
132.149857 106.077003
132.213104 31.74671
132.253571 27.14583
132.294434 33.348888
132.381912 22.5875
132.415787 33.76923
132.480301 44.839291
132.500183 39.920609
132.70607 25.19758
132.794479 25.029409
132.886337 27.00329
133.211563 35.076221
133.253128 35.089901
133.288116 20.92985
135.045151 98.916977
135.079239 106.337601
136.122406 31.85294
138.787766 53.48148
139.073395 170.839996
140.318436 22.632681
140.574387 20.02083
141.090118 2060.952881
141.169464 40.704491
141.259003 33.25568
141.739624 20.55191
144.432022 30.217621
149.057434 163.768906
153.087708 72.720337
159.04306 2022.682007
159.435654 67.640633
161.056763 34.00544
162.062744 50.625
165.071274 19.160721
169.051971 58.535198
175.070877 38.560101
175.111984 52.500751
177.049591 78.197281
186.107864 30.27705
189.127701 173.533997
192.627838 42.85849
193.047043 71.680153
193.99115 21.662081
194.068619 22.37879
194.353287 35.609798
194.577835 22.00123
195.064911 11829.929688
195.123932 81.013092
195.141159 25.59766
195.193604 30.518009
195.204636 26.95863
195.248383 54.055561
195.26506 32.716068
195.361771 28.40625
195.3974 22.723221
195.443542 29.79167
195.497162 26.80645
195.540085 31.04167
195.817245 21.347111
195.865952 22.01923
196.231262 19.24671
196.499741 19.469419
198.655869 18.511971
199.107193 22.699289
201.05542 111.980103
203.014053 23.182631
205.051926 58.567131
206.048965 26.000879
206.092255 23.40625
206.308273 29.04735
206.624619 29.765631
207.064987 12167.660156
207.127579 91.053833
207.168167 43.82703
207.244232 28.3125
207.528961 23.695311
207.595276 31.03087
207.650085 27.5
207.683868 38.753471
207.945953 24.877569
208.021271 22.1609
208.272079 22.245001
210.497147 33.019291
219.063278 47.842991
219.793884 21.05714
228.077835 26.90086
228.159943 180.998398
236.090317 59.53521
239.107941 57.12981
240.746445 18.71875
243.100281 62.003181
245.078217 31.723221
246.088333 53.160709
252.071747 49.5084
255.067825 26.03846
260.431854 19.464939
261.108978 364.10199
261.313629 80.315826
267.080261 18.529409
269.079895 208.417206
270.085175 241.125107
274.114502 60.632111
275.125946 260.732086
275.217407 29.5
283.142517 26.021549
283.318695 26.53064
283.343597 23.66806
283.461823 37.42308
283.48111 31.8125
283.503052 151.890396
283.551483 24.39205
283.635376 24.9375
283.752045 23.036289
283.881012 20.16667
284.168335 27.680149
284.443054 22.31818
284.626312 21.02471
284.971771 18.860291
285.035126 103.8685
285.050842 89.20417
285.112091 28046.869141
285.235474 85.35183
285.273926 171.647598
285.318634 43.265629
285.346558 182.483505
285.375458 24.16667
285.393524 75.523247
285.4487 60.86742
285.565643 71.877419
285.606873 86.776627
285.632965 68.480057
285.658173 44.012501
285.718597 18.527781
285.759766 47.0
285.878021 28.375
286.001404 26.83333
286.19165 29.625
286.701447 23.08036
287.030243 21.702499
288.394531 22.527411
303.122009 4752.190918
303.256561 33.504028
303.347168 38.145828
303.384949 64.543694
303.549957 54.34729
303.833618 29.970591
304.216248 28.095591
304.463409 29.22364
304.77356 28.1
345.277405 55.586811
346.29892 49.302811
346.822601 22.52948
347.148956 6887.566895
347.273651 36.070648
347.312744 25.680559
347.335388 25.74564
347.481049 25.58036
347.607269 24.08004
347.711273 52.55434
347.750519 29.82003
347.838165 54.308121
347.925842 22.469419
348.385895 23.796301
348.489746 25.02083
348.938354 43.000599
350.258331 19.56452
375.234589 87.501373
376.587128 26.742649
389.340759 19.148279
403.106171 47.149391
418.880463 29.95455
428.181061 37.40741
430.634277 35.020828
431.089417 22.816669
431.158661 27.570311
431.307007 59.059212
431.358887 207.966705
431.399567 194.826904
431.457245 320.318115
431.521729 95.487808
431.544373 242.000397
431.573303 193.082108
431.615326 314.796814
431.661835 313.584503
431.699127 295.0112
431.732605 225.888199
431.778442 326.939606
431.812256 244.952698
431.905426 189.380707
431.981812 181.212204
432.092468 38.94022
432.13559 111.630501
432.512238 101.332298
432.856842 58.119999
432.934021 54.910519
433.045197 59.814129
433.157593 24.806141
433.193726 23.001789
433.225769 59.075668
433.267914 74.489128
433.48465 21.59091
433.708313 56.570351
433.903442 38.500931
433.961761 55.015629
433.991791 35.31522
434.035583 53.211861
434.101562 252.434402
434.218414 275581.8125
434.815674 481.901215
434.855591 104.943199
434.89325 561.936584
434.957642 467.907806
435.01709 428.088013
435.062012 308.491089
435.121857 392.516602
435.179321 158.1241
435.421295 312.570496
435.652252 174.809998
435.727203 76.4375
435.753876 54.19471
435.801819 102.324402
435.863556 101.193398
435.977722 142.996094
436.180511 134.290695
436.265625 86.946678
436.309906 110.379997
436.359283 251.392395
436.454102 174.356293
436.499329 99.530502
436.541107 103.503502
436.60495 108.233704
436.722931 75.342781
437.056671 39.280029
437.200043 21.78241
437.342621 33.630211
437.665527 35.16164
437.898346 23.42404
438.239624 70.265312
438.415375 27.48225
438.557678 50.38908
439.027435 27.0084
439.202698 30.761909
439.291718 60.42297
439.383301 23.401779
439.764557 31.23053
441.64267 39.001141
444.394684 31.59552
446.324921 21.25568
450.849945 31.003469
457.202789 33.15313
501.700073 20.334721
1038.634277 127.564301
1383.878662 24.148279
