>compound MLS000863635-01!6-[2-(1,3-benzodioxol-5-yl)ethyl]-4-methoxypyran-2-one
>formula C15H14O5
>ionization [M+H]+
>parentmass 275.092
#inchi InChI=1S/C15H14O5/c1-17-12-7-11(20-15(16)8-12)4-2-10-3-5-13-14(6-10)19-9-18-13/h3,5-8H,2,4,9H2,1H3
#inchikey BYHVZDRLSCCTND
#Ion_Source LC-ESI
#Instrument qTof
#Compound_Source NIH Natural Product Library
#PI Dorrestein
#Data_Collector VVP/LMS
#Scan -1
#Precursor_MZ 275.092
#ExactMass 274.084
#Charge 1
#CAS_Number N/A
#Pubmed_ID N/A
#Smiles COc1cc(CCc2ccc3OCOc3c2)oc(=O)c1
#INCHI_AUX N/A
#Library_Class 1
#SpectrumID CCMSLIB00000079608
#IonMode Positive
#UpdateWorkflowName UPDATE-SINGLE-ANNOTATED-GOLD
#LibraryQualityString Gold
#TaskID b1d8e8f6646f4e71acdff9ca3d919d08
##Scan# 2060
#SpectrumFile p1-G08_GG8_01_17952.mzXML
#LibraryName NIH_Natural_Products_Library.mgf
#MQScore -1
#Organism NIH_Natural_Products_Library
#TIC_Query 0
#RT_Query -1
#MZErrorPPM -1
#SharedPeaks 0
#MassDiff 0
#LibMZ -1
#SpecMZ 275.092
#SpecCharge 0
#internalFilename spec-00000.mgf

>collision 10
95.367905 172.0
96.946815 184.0
97.025215 176.0
97.923225 124.0
97.958679 160.0
98.295822 160.0
98.89463 68.0
99.045113 164.0
99.249245 232.0
99.429764 112.0
100.083771 200.0
100.701981 132.0
100.82785 196.0
101.685036 128.0
101.715141 132.0
101.930038 32.0
103.055374 156.0
103.191818 168.0
104.605835 180.0
104.956261 144.0
105.032425 1452.0
105.816444 176.0
106.037575 328.0
106.844666 156.0
106.912567 48.0
106.974312 132.0
107.023727 108.0
107.051605 224.0
107.182327 156.0
107.563866 76.0
107.698082 220.0
107.964699 96.0
108.331055 132.0
108.538307 172.0
108.631638 196.0
109.090569 76.0
109.196617 120.0
110.218102 80.0
110.611282 196.0
111.042908 132.0
111.328331 172.0
112.014206 196.0
112.049965 156.0
112.201546 172.0
112.273232 192.0
112.50956 164.0
112.737671 132.0
112.801079 92.0
112.858162 160.0
114.328194 132.0
115.052902 212.0
115.482414 72.0
115.803459 48.0
115.951294 36.0
116.037033 88.0
116.092781 244.0
116.12281 92.0
116.50489 120.0
117.217056 40.0
117.378731 188.0
117.985435 132.0
118.061119 112.0
118.799713 120.0
119.077545 132.0
119.138367 172.0
119.205727 96.0
119.303528 152.0
119.923904 48.0
120.289673 64.0
121.065392 184.0
122.078209 168.0
122.296013 284.0
123.040169 228.0
123.42775 124.0
123.994461 216.0
124.19622 204.0
125.519478 208.0
125.851944 228.0
126.175911 160.0
126.430908 160.0
126.630157 128.0
126.836296 184.0
127.051575 108.0
128.065369 420.0
128.256897 168.0
128.324524 140.0
128.983719 208.0
129.069626 116.0
129.268692 148.0
129.332062 140.0
129.930298 168.0
130.052841 160.0
130.488998 156.0
131.016998 188.0
131.048889 284.0
131.320175 136.0
131.457047 168.0
131.655655 180.0
131.676208 140.0
132.229492 180.0
133.153442 192.0
133.252213 140.0
133.557953 64.0
134.027603 72.0
134.622742 136.0
134.680481 56.0
134.733856 112.0
134.768265 180.0
134.888443 224.0
134.971664 244.0
134.991135 240.0
135.043854 37152.0
135.123611 52.0
135.142838 72.0
135.163651 124.0
135.213181 96.0
135.233078 40.0
135.288055 80.0
135.307159 44.0
135.325684 60.0
135.348068 84.0
135.392838 56.0
135.450729 72.0
135.492432 76.0
135.522385 56.0
135.666245 64.0
135.770584 200.0
135.919052 140.0
136.047119 3160.0
136.12796 32.0
136.332397 96.0
136.374222 28.0
136.460236 60.0
136.757996 36.0
136.976746 140.0
137.049103 956.0
137.107788 64.0
137.156296 60.0
137.177277 88.0
137.3685 128.0
137.387161 68.0
137.751328 52.0
138.275085 68.0
139.140045 112.0
139.631149 48.0
140.026535 152.0
140.047928 1024.0
140.738708 48.0
141.072098 144.0
141.090744 72.0
143.076447 104.0
145.028091 136.0
145.064041 172.0
146.959167 152.0
149.060928 176.0
149.233505 176.0
151.2388 236.0
152.922562 52.0
153.051544 204.0
157.033035 200.0
157.250092 248.0
158.059784 168.0
160.647614 164.0
160.985825 92.0
161.057053 196.0
161.415405 140.0
162.10141 96.0
163.98967 192.0
164.77562 136.0
169.059509 144.0
173.052582 196.0
177.047241 200.0
182.964478 64.0
185.054153 192.0
190.096939 216.0
199.066666 100.0
201.059799 132.0
205.015991 216.0
211.973404 124.0
213.047653 160.0
214.986099 80.0
217.048401 112.0
220.97171 200.0
224.008743 156.0
227.621674 56.0
233.274597 92.0
244.122498 56.0
262.140778 160.0
275.081543 164.0
292.969574 68.0
355.120392 144.0
378.263397 136.0
439.248016 100.0
597.225464 48.0
648.491394 108.0
688.658875 148.0
716.081055 128.0
764.844727 172.0
770.950195 208.0
777.618225 280.0
785.106628 160.0
791.981079 156.0
796.642456 192.0
834.702026 196.0
839.539185 180.0
880.268555 168.0
880.735168 220.0
885.182556 216.0
890.514038 156.0
898.58606 188.0
903.46106 184.0
928.749695 152.0
941.372192 164.0
942.25177 160.0
943.101135 76.0
948.604065 232.0
956.343628 104.0
975.693298 184.0
1007.328735 168.0
1015.265747 172.0
1019.544617 192.0
1029.540161 168.0
1030.830566 148.0
1044.042847 172.0
1046.919434 140.0
1047.956543 200.0
1054.30603 152.0
1054.83606 156.0
1059.385254 144.0
1060.804443 168.0
1061.757568 168.0
1068.5 116.0
1073.411133 156.0
1101.395996 176.0
1111.498657 176.0
1113.941895 224.0
1114.293945 132.0
1116.467651 124.0
1127.908691 92.0
1131.079346 112.0
1135.944214 152.0
1140.208374 224.0
1149.609131 52.0
1151.668335 160.0
1152.296509 152.0
1154.074097 156.0
1154.459473 268.0
1159.984375 132.0
1165.141846 164.0
1166.922485 76.0
1173.090454 224.0
1174.00415 200.0
1183.940674 152.0
1187.771973 284.0
1189.055054 196.0
1189.240356 180.0
1190.826416 176.0
1200.233765 168.0
1207.00061 204.0
1209.86499 248.0
1215.139038 144.0
1218.297852 160.0
1218.422974 232.0
1221.815552 180.0
1228.524414 264.0
1233.985718 216.0
1234.831909 168.0
1239.38916 172.0
1249.598022 188.0
1253.872314 184.0
1262.089233 224.0
1267.362427 224.0
1271.01416 52.0
1285.173828 232.0
1288.215088 104.0
1295.21814 204.0
1304.783936 144.0
1305.71875 120.0
1306.891235 56.0
1309.569214 188.0
1313.627441 152.0
1315.713013 216.0
1318.082031 136.0
1319.845703 140.0
1320.142212 132.0
1321.654053 148.0
1322.985718 148.0
1323.528687 68.0
1325.897461 60.0
1326.325195 188.0
1327.579468 128.0
1331.353027 128.0
1331.54187 92.0
1338.370239 180.0
1341.051147 156.0
1342.735352 176.0
1344.391357 196.0
1345.157715 168.0
1353.426392 148.0
1354.730103 156.0
1356.136963 184.0
1356.82605 124.0
1357.412598 152.0
1359.106934 192.0
1368.691895 176.0
1369.023315 72.0
1374.97998 132.0
1376.744385 136.0
1377.771118 208.0
1378.362183 164.0
1379.278687 208.0
1382.421875 176.0
1388.674683 136.0
1391.761841 176.0
1394.14624 84.0
1395.618042 220.0
1396.012207 156.0
1399.695679 200.0
1401.952759 160.0
1402.027344 148.0
1403.980469 164.0
1410.834961 60.0
1411.881714 152.0
1412.248291 124.0
1413.108521 212.0
1418.942871 120.0
1420.832764 116.0
1420.960327 228.0
1422.168579 148.0
1423.790283 152.0
1428.585693 144.0
1429.360596 240.0
1430.647583 108.0
1433.321411 144.0
1438.872559 244.0
1439.219849 136.0
1440.088379 156.0
1443.973145 168.0
1444.714478 164.0
1454.580933 140.0
1455.256592 216.0
1457.573242 56.0
1459.983032 156.0
1462.387085 220.0
1463.20166 244.0
1465.387451 168.0
1469.817383 192.0
1470.565308 120.0
1474.221069 184.0
1479.501099 136.0
1481.300781 204.0
1487.143555 128.0
1489.016968 136.0
1490.053955 132.0
1494.40564 236.0
1495.067383 60.0
1496.044922 208.0
1501.477051 68.0
1502.904175 104.0
1503.359375 132.0
