>compound pateamine
>formula C31H45N3O4S 
>ionization [M+H]+
>parentmass 556.32
#inchi InChI=1S/C31H45N3O4S/c1-21(13-14-34(6)7)11-12-23(3)16-27-19-29-33-28(20-39-29)24(4)17-26(32)18-31(36)37-25(5)15-22(2)9-8-10-30(35)38-27/h8-13,16,20,24-27H,14-15,17-19,32H2,1-7H3/b10-8-,12-11+,21-13+,22-9+,23-16+/t24-,25-,26+,27+/m0/s1
#inchikey DSPNTLCJTJBXTD
#Ion_Source DI-ESI
#Instrument qTof
#Compound_Source Isolated
#PI Keyzers
#Data_Collector Keyzers
#Scan -1
#Precursor_MZ 556.32
#ExactMass 555.313
#Charge 1
#CAS_Number 139220-18-1
#Pubmed_ID N/A
#Smiles N/A
#INCHI_AUX N/A
#Library_Class 3
#SpectrumID CCMSLIB00000007055
#IonMode Positive
#UpdateWorkflowName UPDATE-SINGLE-ANNOTATED-BRONZE
#LibraryQualityString Bronze
#TaskID 76b66bf1ccd04cec9993212b36387ea3
##Scan# 5
#SpectrumFile pateamine_pos_MSMS_single_charge_001.mgf
#LibraryName gnps_library.mgf
#MQScore -1
#Organism test_rob_keyzers
#TIC_Query 0
#RT_Query -1
#MZErrorPPM -1
#SharedPeaks 0
#MassDiff 0
#LibMZ -1
#SpecMZ 556.32
#SpecCharge 0
#internalFilename spec-00000.mgf

>collision 10
21.129143 35.205002
24.572769 28.183821
26.832491 232.878998
27.070356 43.13306
27.223448 42.005951
31.040953 121.781303
32.048325 71.768623
36.374687 41.083328
38.343494 27.844999
41.038105 306.51059
41.38224 61.44643
42.034187 472.316315
43.017971 811.221619
43.05452 240.645203
43.077747 34.890629
44.047298 116.565201
44.98362 45.160709
45.056217 161.360306
45.403442 77.570953
46.064682 296.555908
46.370762 31.20833
51.020027 108.802597
51.594654 56.112499
55.015766 202.666702
55.05547 322.928986
55.811134 37.044998
56.049011 169.397095
56.559452 65.840118
57.035118 188.604401
58.066162 4088.00708
58.137283 74.04084
58.228642 43.265629
58.268726 30.164471
59.068977 46.36364
64.976448 42.25
65.039177 246.893005
67.055046 1192.758057
67.130859 33.222221
68.044662 71.037041
69.031235 230.813797
69.068039 383.041199
70.025879 34.059212
70.064575 195.2854
71.075005 391.742401
72.080002 234.208298
73.045319 780.282471
77.037529 781.936829
79.053253 1694.843994
80.050003 212.5625
80.945541 82.284088
81.069763 1878.005981
82.066315 356.910187
83.01564 60.07143
83.048439 222.308197
83.088058 296.814911
84.006462 214.643295
84.042114 201.060593
84.077988 387.977295
84.675247 43.56818
85.027641 69.149391
85.064667 189.484802
85.081947 173.784103
86.007187 161.155807
86.098846 144.066193
86.81382 32.5625
87.039406 84.011902
88.036705 133.793106
89.038963 78.520157
89.082039 90.375
91.054962 4434.201172
91.14225 45.117649
91.372589 31.48214
91.581329 49.0625
92.054146 29.595591
93.028534 37.16346
93.072639 427.920013
94.023193 120.035698
94.065247 963.051514
94.609665 33.025002
95.042725 66.289284
95.084435 1550.708984
96.080978 1257.603027
96.338173 38.025002
97.012688 212.535202
97.073303 165.520798
97.099129 183.453796
97.9991 34.125
98.096596 984.107971
99.047112 77.367653
100.018753 68.080132
102.055496 308.052307
103.057274 67.840912
104.101631 462.451904
105.070419 2975.13501
105.136276 43.166672
105.164513 28.907261
105.307213 37.17308
105.691368 66.041656
106.064247 414.263214
107.085274 8899.730469
107.1819 119.083801
107.582108 43.059212
108.013466 28.02083
108.080032 1078.529053
108.133789 39.035709
108.893272 42.92046
109.008286 39.28125
109.060165 151.094101
109.099297 756.837524
110.095375 91.125
111.043343 328.320099
111.103912 131.651001
111.834419 34.44643
112.02121 1124.286987
112.685181 61.058819
112.734253 40.125
113.019165 53.337959
113.04348 79.280167
114.038406 68.25
115.053467 573.057007
116.059341 273.224487
117.067963 1928.000977
118.069061 122.043098
119.085594 1329.171997
120.080963 489.314087
121.098015 365.396606
121.129196 59.013889
122.097244 326.444489
123.025124 33.035709
123.104416 935.521973
124.022148 935.930725
124.072632 86.875
124.114922 63.125
124.976349 33.041672
125.036049 414.924408
125.096428 963.251282
125.156982 31.28125
125.201134 32.43214
126.037636 1760.47998
126.094086 30.53125
126.753487 30.148809
127.032761 225.011795
128.05246 790.324829
128.959625 89.920464
129.065613 588.005188
130.076401 263.003815
130.960754 38.520828
131.084595 10568.910156
131.188904 173.692596
131.40831 39.778851
131.512726 47.135872
131.598511 45.680561
131.918854 66.400002
132.028061 31.20455
132.091049 1521.702026
132.308487 53.289291
132.676193 44.066181
133.10202 2105.645996
134.096786 353.090912
135.083481 1126.884033
136.021896 71.013893
136.109161 274.001312
137.002487 87.0
137.07579 30.04167
137.114777 79.315224
138.036469 821.782288
139.042435 41.5625
140.051483 497.859406
140.71756 40.0
141.063477 432.367493
142.079498 129.349503
142.985153 71.979652
143.084457 714.204285
144.081863 263.962402
145.100769 6286.400879
145.185852 61.612499
145.213104 55.81686
145.314621 29.125
146.026505 37.625
146.094116 764.119995
147.049988 43.25
147.116165 514.039124
147.406723 41.39674
148.11087 398.074402
148.881241 28.322371
149.027725 82.720238
149.10878 84.032143
150.036057 735.91272
150.090347 105.462799
151.039963 304.681
152.052261 1748.322998
152.180557 45.720242
152.392548 28.5
153.036438 251.248901
153.065262 157.445007
154.081894 667.660889
155.069534 150.669098
156.08905 465.640991
157.09288 216.335297
157.37709 32.400002
158.091461 85.375
159.105515 129.100006
160.110199 1414.291016
161.119019 1639.253052
162.037201 328.607697
162.12645 5041.0
162.238403 58.360001
162.684891 53.603569
162.866089 54.17308
162.934967 67.598686
163.052139 93.260406
163.130798 233.694305
164.052185 689.91687
164.140686 39.17308
164.914154 41.25
165.057724 167.306198
165.406281 38.760139
166.069885 988.615112
166.125916 40.0625
168.098206 249.003494
168.891434 36.007351
169.099579 321.413788
170.065887 325.000885
170.12442 38.240379
171.047409 103.0
171.10704 646.63623
172.111542 408.0
172.679916 66.888893
173.095093 105.157097
173.800659 42.26667
174.036301 77.17308
174.127441 339.049011
175.128357 148.615402
176.051514 212.041702
176.143127 11606.349609
176.262466 123.6642
176.304703 41.55769
176.386627 53.0
176.420593 29.56818
176.510986 36.875
176.559402 30.05357
176.781143 36.059212
176.822311 32.900002
176.870132 51.777779
177.058899 95.3125
177.149933 1576.219971
178.066422 1443.697998
178.15181 40.285709
179.078278 208.793503
180.046631 827.619873
180.083664 334.045013
181.087708 356.01889
182.080902 41.36364
183.1297 69.882347
184.108688 156.339294
185.038971 42.322369
185.111115 133.049606
186.126877 530.728027
187.056335 225.656296
187.116455 162.020493
188.070847 462.140808
188.145981 158.780502
189.067474 184.347198
189.134384 64.557693
190.064072 503.560394
190.159744 623.00238
190.359772 36.0
190.999847 58.76136
191.066162 107.481499
192.000534 35.0
192.050598 198.405899
192.08429 434.009796
193.045181 77.047623
193.089813 96.281967
194.062744 922.39563
195.054855 87.18409
195.133774 70.605003
196.042191 190.7659
196.107407 162.9263
197.309189 36.148811
198.056183 2209.558105
198.116882 132.561096
198.177628 43.605
200.136337 139.951294
201.083344 121.446404
201.134354 243.213394
202.072098 123.857101
202.143646 57.117649
203.094284 47.003792
204.048019 276.654388
204.081619 528.493896
205.004181 34.520828
205.08345 85.291656
205.183945 35.360291
206.089478 282.166687
207.032379 563.630615
207.102234 103.0
207.717255 62.512501
208.112701 360.702606
209.030457 249.4216
209.12236 37.625
210.060165 225.792603
211.066437 421.014404
211.593277 33.07143
212.07341 1195.542969
213.073044 63.145409
213.117996 69.96196
214.075226 221.966995
215.074524 199.321396
216.08429 268.0
216.168228 53.089291
217.164673 253.3255
218.053757 32.020828
218.100662 168.125
219.085297 104.125
220.007248 44.347221
220.063004 120.052597
220.117706 64.094704
221.12352 248.826904
221.527084 30.245001
222.050613 37.007351
222.134644 171.625
222.981583 33.720242
223.07106 57.81818
223.133514 361.735809
224.072052 1180.608032
224.140213 252.0
224.590363 28.0
225.087631 239.629807
225.161774 47.25
226.074249 291.33551
227.07782 97.844299
227.148804 53.625
228.079742 275.311493
229.092712 146.155807
230.098038 1427.942993
231.069717 61.041672
231.107803 95.85714
232.109177 366.900299
233.127731 260.422394
233.201202 29.035721
234.065735 52.032139
234.130295 284.668213
235.047119 37.875
235.752167 38.625
236.078461 73.291656
237.096054 80.010406
237.129105 55.25
238.098389 77.199997
238.163025 39.2663
239.081757 166.897705
239.146561 28.674999
240.074448 302.4198
241.089523 161.333298
242.104202 296.694214
243.074081 28.240391
243.107544 144.811005
246.095642 189.773499
247.12738 77.761902
247.999954 69.387817
248.087738 60.367649
249.226547 55.520828
250.16008 96.026161
251.152237 101.489899
251.960693 97.064507
254.10379 189.6465
255.109726 46.92046
256.113373 4130.38916
256.254181 48.005951
257.118073 580.84613
257.491577 29.00658
258.066437 75.100807
258.133118 850.620483
259.089783 53.599998
261.128937 74.094704
262.083313 174.9245
262.152008 30.066179
262.261536 79.693962
263.104736 96.035713
264.106903 200.047607
264.266144 35.148811
264.943787 28.285721
265.023285 170.694397
265.077911 83.840912
265.169342 42.680561
266.026581 35.208328
266.102051 62.347221
266.997772 195.014206
267.103516 139.988602
268.119171 176.054901
268.595367 34.285709
269.095306 98.458344
270.131714 160.198502
271.146515 40.599998
272.15448 54.135872
273.143188 135.116806
274.129364 122.0028
274.314056 30.04167
276.108124 151.005997
277.120514 68.125
278.08963 57.555561
279.11322 169.755096
280.119263 121.165298
281.05481 352.332306
281.129486 65.140633
282.038574 150.204498
282.127686 441.536285
283.01825 47.041672
283.063995 43.01667
283.139984 101.125
283.43158 67.052643
286.119751 164.719101
287.155212 250.546906
287.211243 34.408329
288.101166 55.20454
290.143829 32.020828
292.095093 60.816669
292.905731 29.48214
293.151917 43.291672
294.147858 105.333298
294.259552 33.0
295.224487 41.645
296.146362 517.059021
296.28183 27.471149
297.836731 33.1875
298.147766 403.767914
299.147675 151.232697
300.098785 110.367401
301.108521 46.035709
301.162872 68.734756
302.129761 30.125
302.180634 42.625
304.098663 48.76923
306.130219 68.900864
307.131989 114.976303
308.107452 53.728451
308.171112 50.92308
309.103546 54.75
310.164154 37.224998
311.120544 59.520828
312.124725 42.694439
313.164429 49.90086
316.137787 758.80542
316.497955 54.645
317.532654 66.640961
318.155823 161.111404
322.127167 64.462837
324.132538 479.010712
325.190002 47.01786
325.590851 45.361111
326.127502 103.5625
326.191437 97.520157
327.180725 150.055603
328.149841 57.100609
330.657013 43.022732
332.158447 146.125
333.170776 52.041672
340.131256 76.235291
341.168762 57.976349
342.151764 2168.77002
342.304413 58.00544
342.737427 29.0
343.213623 294.644806
344.167419 256.531891
358.158966 52.612499
359.186829 57.117649
362.133026 50.165321
366.505341 47.625
373.009827 60.160709
377.154541 34.135872
377.189087 29.16667
390.073395 31.08654
395.184296 34.007351
408.211487 36.45454
413.195923 31.0
415.214325 74.79348
423.477081 30.02273
429.295471 39.30769
450.224548 30.0625
471.328491 48.125
476.223633 46.048908
494.231598 108.440002
496.297668 35.901321
518.070679 32.01136
528.932922 29.049999
548.553101 30.008329
563.363708 29.560181
605.918396 35.2663
608.688782 30.00658
662.437195 42.0
718.520081 36.090912
767.810547 46.375
770.377869 38.090912
819.69574 27.889709
859.043945 33.480259
890.545288 37.339291
892.084473 31.29167
899.050293 30.72024
910.730408 33.11364
969.254089 32.777779
