>compound Cilostazol
>formula C20H27N5O2 
>ionization [M+H]+
>parentmass 370.225
#inchi InChI=1S/C20H27N5O2/c26-20-12-9-15-14-17(10-11-18(15)21-20)27-13-5-4-8-19-22-23-24-25(19)16-6-2-1-3-7-16/h10-11,14,16H,1-9,12-13H2,(H,21,26)
#inchikey RRGUKTPIGVIEKM
#Ion_Source LC-ESI
#Instrument qTof
#Compound_Source Isolated
#PI Sirenas
#Data_Collector Ed Esquenazi 
#Scan -1
#Precursor_MZ 370.225
#ExactMass 0.0
#Charge 1
#CAS_Number N/A
#Pubmed_ID N/A
#Smiles N/A
#INCHI_AUX N/A
#Library_Class 3
#SpectrumID CCMSLIB00000006418
#IonMode Positive
#UpdateWorkflowName UPDATE-SINGLE-ANNOTATED-BRONZE
#LibraryQualityString Bronze
#TaskID d19310cd93df49b68e9fcbec27720eb5
##Scan# 3
#SpectrumFile Cilostazol.mgf
#LibraryName fda_library.mgf
#MQScore -1
#Organism fda_library
#TIC_Query 0
#RT_Query -1
#MZErrorPPM -1
#SharedPeaks 0
#MassDiff 0
#LibMZ -1
#SpecMZ 370.225
#SpecCharge 0
#internalFilename spec-00000.mgf

>collision 10
100.2696 5.669872
102.580559 6.84375
103.053322 279.739014
103.082954 6.338889
104.049614 227.272598
104.6465 9.861112
104.885017 8.04529
105.032562 36.042858
105.069939 233.732697
105.088249 9.005952
105.11322 3.333333
105.641762 9.339744
105.659637 10.83
106.026031 10.27222
106.064812 394.665985
106.404747 3.666667
107.050583 74.918922
107.098465 2.0
108.042763 160.578598
108.054039 51.134449
108.081696 19.46188
109.027565 70.785789
109.074318 62.020649
109.095024 6.668478
109.150383 7.190217
110.058784 252.278305
110.133064 2.041667
110.721642 13.78667
115.056602 55.04797
116.046387 98.379837
116.060135 36.727409
116.618996 18.026779
116.646057 3.640152
116.700928 6.120098
117.044014 70.640266
117.059601 59.215
117.067619 100.519302
117.229034 3.028846
117.475204 5.721154
117.504425 9.149692
117.656868 3.518939
117.670456 28.02347
118.065102 874.396179
118.116806 4.448233
118.341652 22.339911
118.36824 18.234501
118.697754 5.480072
118.815292 5.388158
119.047966 92.045853
119.072037 481.722595
119.115051 2.678571
119.449409 6.666667
119.758415 2.075
119.875534 6.677083
119.890869 5.121212
120.043961 562.510986
120.080673 464.072601
120.104279 9.010715
120.218758 4.670455
120.295776 6.446428
120.375999 4.669445
120.447655 3.342592
121.065987 4.15
121.120415 11.85698
121.132057 3.380953
121.375206 2.367424
121.411789 5.001437
121.469231 5.681667
121.530624 10.54825
121.906715 3.080128
122.060135 1950.896973
122.126732 18.889549
122.159637 8.375
122.205521 19.496771
122.240059 14.58333
122.256516 16.52766
122.275749 3.002451
122.286514 17.135
122.29541 13.71902
122.32576 15.44511
122.412102 12.42514
122.460464 5.333333
122.502823 9.765873
122.583443 14.22866
122.992317 2.347222
123.398369 10.66667
123.769028 2.680556
124.307587 5.339743
124.334679 11.70027
124.343071 7.560484
124.351288 9.019736
124.393112 9.893817
124.409164 14.8609
124.424088 24.77932
124.432274 13.72024
124.453842 14.68452
124.487022 18.410721
124.510658 45.040329
124.52433 13.24074
124.5411 22.0928
124.559837 2.337121
124.575363 18.054359
124.58445 16.33333
124.591393 10.48677
124.61808 4.008333
124.75016 3.668651
124.809502 11.20119
124.820107 6.001263
124.835655 10.81649
124.884521 24.872761
124.960083 9.369253
125.082352 21964.970703
125.130745 97.56459
125.166153 61.814899
125.186699 23.444441
125.201729 11.02083
125.219261 16.90741
125.232285 92.843483
125.250504 6.741667
125.263756 45.361111
125.282288 61.17778
125.29837 35.82214
125.314964 18.999319
125.331573 31.09399
125.353111 12.3952
125.360962 25.813761
125.369492 3.816667
125.377716 17.37689
125.388145 14.39682
125.398155 20.3358
125.419395 22.68961
125.431328 21.76042
125.455788 69.798119
125.46917 19.90645
125.478119 31.72538
125.505348 30.725
125.530724 30.81974
125.545731 37.88015
125.565758 11.75758
125.573174 32.389641
125.601021 11.94697
125.614128 5.013889
125.645378 15.40514
125.676567 24.03175
125.700867 6.446428
125.801918 15.97046
125.905991 10.85201
126.020096 7.2
126.066849 14.4
126.219345 5.666667
126.320984 12.36218
126.430481 10.06187
126.457283 13.76923
126.52047 5.667929
126.712273 15.09513
127.327896 11.01293
127.394775 6.416667
127.85836 4.0
128.048584 246.734695
128.061081 132.297501
128.078751 5.668104
128.180893 11.3952
128.196884 4.71627
128.958176 5.466667
129.066574 363.481415
129.335098 3.640152
130.191269 4.387821
130.277206 7.605556
130.432053 5.480072
130.704742 6.054487
131.046524 93.164391
131.058121 204.888901
131.064774 20.75214
131.079315 85.166801
131.104752 4.190476
131.287674 9.599999
131.403305 14.04025
131.851303 7.5625
132.079651 903.374695
132.198166 27.456341
132.270096 7.061869
132.388153 14.125
132.502258 6.666667
132.660019 16.110319
132.786728 6.070402
133.047821 5.564815
133.058548 104.015404
133.069 64.502602
133.132156 21.69194
133.313431 10.45581
133.320602 4.337963
133.348557 7.004167
133.371765 8.815
133.388458 10.92188
133.492905 3.733333
133.834961 5.069444
133.988083 4.675
134.059769 3618.61499
134.11055 29.71104
134.13768 12.40152
134.182129 7.481667
134.209656 6.033602
134.310287 7.638889
134.32399 4.761905
134.449554 5.75
134.479813 8.041667
134.520432 6.095238
134.552658 11.87879
134.620743 3.791667
134.754288 9.38313
134.879517 3.025
135.32431 10.96014
135.506485 5.801667
135.745514 5.668333
136.037918 95.40126
136.073181 482.444489
137.575607 8.721847
139.0896 17.049379
141.067001 18.59631
142.046936 15.42691
142.064865 112.008904
143.059738 206.272995
143.084076 71.637947
143.147751 9.280702
143.838348 14.62976
143.949432 4.013889
144.046524 111.878502
144.081787 41.050411
144.122269 17.55254
144.530869 2.5
144.976624 12.0
145.038727 150.208496
145.076569 423.729797
145.32872 12.98718
145.395813 15.57843
145.455368 8.223765
145.481964 9.74252
145.517456 4.453432
146.060074 4487.539062
146.09552 647.698486
146.165421 22.859529
146.180908 9.201667
146.202347 2.666667
146.225479 6.541667
146.238831 15.54833
146.253799 18.29331
146.285797 7.380952
146.294907 6.364899
146.320145 7.667929
146.336914 14.40165
146.355011 13.27273
146.375381 11.57615
146.414108 8.06586
146.438477 21.849779
146.467407 20.334061
146.514053 9.730392
146.522369 35.148281
146.534882 14.90774
146.552094 8.774123
146.695312 10.63575
146.77919 4.686404
146.9272 8.818548
147.045059 54.669289
147.117233 3.555556
147.146133 12.04167
147.162994 10.13636
147.184097 11.05235
147.243042 18.96056
147.265686 36.773079
147.296539 4.761905
147.319214 17.88324
147.352966 5.678764
147.382523 11.86613
147.449875 7.703703
147.697998 3.893518
148.025177 16.415979
148.039917 122.051804
148.075348 2855.345947
148.126785 20.69668
148.147964 10.6674
148.156082 6.639493
148.230576 9.020979
148.30043 14.68432
148.334244 22.686939
148.389389 15.05556
148.486969 10.73016
148.500839 3.041667
148.576096 7.656609
148.625336 12.42672
148.843216 14.76056
148.860184 6.75
148.902634 11.69667
149.02153 6.666667
149.06044 59.448151
149.077911 89.125191
149.136185 8.495968
150.025467 8.028153
153.198486 18.325451
155.056 52.694439
155.273331 5.358334
155.464203 7.102273
156.040833 68.168007
156.07962 216.001404
156.224213 7.455883
156.337296 4.358333
156.380798 3.010417
156.437424 1.720238
156.511124 20.379311
158.045807 56.976109
158.060287 164.381104
158.083771 46.92606
158.093521 45.597519
158.362122 12.00082
158.528534 3.002778
158.707108 9.519231
159.053345 235.698303
159.063797 134.066193
159.133575 17.335529
159.155518 2.375
159.217224 14.73667
159.234528 4.333333
159.365891 17.0947
159.379623 4.531863
159.414291 2.416667
160.043304 8.727273
160.075775 2354.077881
160.126938 11.77083
160.157761 6.334877
160.181351 9.149692
160.210587 5.729167
160.223892 11.09399
160.24707 15.43529
160.266342 36.853611
160.403732 17.62681
160.417099 4.558333
160.443298 7.263889
160.492798 19.3536
160.545425 5.666667
160.699448 14.02381
161.000259 15.875
161.047806 101.7006
161.11467 10.52083
161.142136 17.524771
161.188873 13.48492
161.314484 5.414216
161.411835 6.160088
161.450333 5.341667
161.525589 5.727941
161.684433 20.16667
161.830734 6.880952
162.054108 1795.588013
162.093369 134.400101
162.157211 10.1859
162.206955 23.77384
162.233551 29.6891
162.295868 17.710751
162.314178 13.39706
162.340683 25.74559
162.357788 2.333333
162.446457 9.895326
162.464188 2.722222
162.54274 16.33333
162.566193 5.702587
162.623886 7.2
162.632736 11.00309
162.668472 17.60952
162.721481 6.520061
162.810272 16.366791
162.836929 32.668331
163.062729 2027.219971
163.09552 78.446007
163.116959 43.62392
163.134445 8.523648
163.169998 11.71204
163.234909 33.082218
163.26329 6.002778
163.281113 2.669444
163.294724 16.183821
163.334366 24.178631
163.39679 6.34375
163.423401 7.017544
163.530151 8.881579
163.619125 21.815571
163.648071 19.25
163.85495 10.72024
163.873123 7.721491
163.922028 10.7815
163.955627 7.761905
164.040009 11.125
164.070663 5180.333984
164.105652 166.668701
164.126175 16.23
164.160324 15.85368
164.190567 21.187799
164.256409 6.306159
164.273941 7.031565
164.294052 7.89533
164.318527 8.68883
164.342926 31.56106
164.363708 10.09722
164.388885 13.40514
164.40036 46.563129
164.425583 6.702587
164.44342 6.355556
164.453629 10.97348
164.524628 20.76417
164.554962 10.66759
164.572815 10.68426
164.630997 13.93426
164.746994 24.338619
164.762543 4.083333
164.827301 19.727409
165.55571 24.51576
165.952377 33.508659
166.129578 2.4
166.36293 7.969086
167.06926 75.613777
167.293732 1.708333
169.780624 9.375
170.059448 19.740801
170.096222 276.000488
170.339493 4.666667
170.457565 7.012097
170.648392 2.4
170.66655 7.031565
170.675705 4.347222
170.970505 4.013889
171.052673 92.450661
171.143799 3.672619
171.170166 15.77778
171.306549 3.111111
172.077545 121.525002
172.102142 4.222222
172.192978 7.675388
172.280182 24.7803
172.482468 3.333333
172.768341 17.5119
172.919083 8.0
173.071213 1064.610962
173.104172 133.690903
173.135391 22.809151
173.171509 32.22522
173.198242 6.344048
173.254959 21.796881
173.321915 5.801667
173.37735 3.402778
173.392563 37.73811
173.505753 8.148809
173.624298 2.003788
173.66098 9.411765
173.844574 28.607691
173.858093 11.71354
174.054794 414.043701
174.090775 5360.341797
174.1474 48.736431
174.225296 39.450001
174.249939 15.52695
174.285019 4.666667
174.310287 2.208333
174.427429 5.76923
174.450378 2.333333
174.477966 3.342592
174.496353 13.32237
174.579147 6.564103
174.632004 30.835199
174.642883 9.388158
174.776718 3.773809
174.791641 7.339506
174.937805 4.0
174.957993 1.875
174.99762 9.667636
175.029724 11.66865
175.062057 11.72037
175.42128 2.337963
175.777451 13.34921
175.981262 10.00595
176.069839 3892.10498
176.121826 13.42857
176.176422 17.022221
176.203568 20.80233
176.256256 19.69031
176.293259 6.840517
176.353531 18.444441
176.376587 6.98077
176.393448 3.266667
176.421631 19.79487
176.440689 25.42734
176.510452 5.88587
176.538773 17.569441
176.59285 8.240079
176.725891 30.88295
176.755447 12.00144
176.769302 9.674319
177.338669 2.367424
178.127121 3.333333
180.154816 19.75309
181.050262 5.011905
182.043549 7.856061
182.058472 37.35677
182.100067 38.3568
182.27861 6.688726
183.031006 12.34722
183.054443 89.306976
183.091431 73.517357
183.124542 12.69551
183.841431 6.399193
184.075455 974.81311
184.152924 12.90505
184.411407 7.935
184.530762 13.03125
184.568909 14.32783
184.700928 9.721847
184.735077 15.89302
184.818512 6.231482
184.847519 4.061275
185.039658 22.13225
185.061127 82.369637
185.292419 3.440476
185.790039 16.44022
186.043365 63.845482
186.087845 41.50174
186.164764 4.666667
186.653992 9.88468
187.049103 125.516602
187.064102 118.180496
187.08197 24.34058
187.100357 99.892281
187.119263 47.095612
187.250702 2.083333
187.462875 20.14167
188.001709 8.022223
188.068909 257.115112
188.103378 147.925201
188.230133 6.639493
188.332306 3.640152
188.464462 12.11725
188.775024 4.666667
188.980621 20.24814
189.065399 1142.769043
189.095505 71.446243
189.200668 8.68889
189.217819 7.095238
189.234314 37.81118
189.315536 10.125
189.946793 9.185897
190.085297 266.570587
191.349747 9.774123
197.012848 6.98077
198.05394 50.34845
198.092422 155.122192
198.421432 8.061869
199.022446 6.219203
199.056656 144.440002
199.078705 10.30876
199.193039 4.763889
199.240677 6.880952
199.343201 4.341667
199.407608 13.04749
199.800903 15.7601
199.968079 3.375
200.068802 544.946472
200.103073 34.129311
200.114487 20.669451
200.287979 4.666667
200.436691 13.95424
200.800385 7.242816
200.923599 9.012931
200.992645 9.122968
201.010605 31.81284
201.0672 1487.28894
201.100143 507.427399
201.145569 2.005952
201.165298 6.335
201.211594 14.93648
201.2668 17.48214
201.352844 4.054824
201.432007 52.533272
201.525665 11.02042
201.570114 10.68948
201.686386 11.64198
201.738754 13.11204
201.827057 54.683941
202.08577 3919.737061
202.146698 39.16552
202.168381 8.57615
202.242752 15.72115
202.298935 38.15123
202.349335 2.444444
202.404343 37.57708
202.460144 2.666667
202.480377 7.98077
202.519531 11.40741
202.554199 5.010417
202.598755 5.388158
202.618637 14.11204
202.707718 8.166667
202.786972 3.00463
202.862076 14.52
203.116455 362.39859
203.233093 5.69697
203.257309 7.177631
203.306473 37.26833
203.550705 8.647059
203.719467 8.284091
203.991257 11.13611
204.196442 1.6875
204.445557 8.45
204.619156 8.719017
204.882797 18.782101
208.240433 5.958333
209.384094 6.333333
212.004883 11.41346
213.110107 8.45
214.062271 14.53333
214.084503 79.102959
215.081375 207.663101
215.11879 119.891502
215.366348 15.66898
215.401474 17.912411
215.442001 7.265351
215.683029 11.79594
217.102341 25.953251
218.01149 11.79167
218.118378 275.558289
218.317093 6.775537
218.445618 10.10417
219.083664 2.333333
225.093704 32.267151
225.557083 7.388514
226.085922 120.1437
226.132172 2.354167
226.414841 5.522727
226.938522 8.843137
227.117065 66.351578
228.089661 153.687393
228.120331 59.39954
228.175171 17.22304
228.282135 3.440476
228.296432 8.791667
228.534851 7.656609
230.379257 12.24537
233.425156 8.396825
241.098221 11.67045
241.271378 4.66821
241.314606 11.44048
241.503876 10.71667
241.720596 5.633333
242.103561 17.69363
243.11293 273.15509
243.209793 8.571032
243.967224 6.583333
245.127853 1174.579956
245.193512 5.818681
245.222137 9.854167
245.270355 10.09643
245.298523 3.361111
245.481781 7.893518
245.761841 8.012963
245.875519 13.40076
260.577576 3.00463
288.140472 25.05336
379.825378 8.000969
704.008362 4.033333
987.007019 8.920045
1059.227661 7.958333
1437.706909 4.669445
1531.441528 24.007071
1605.421509 9.823148
