>compound Zonisamide
>formula C8H8N2O3S 
>ionization [M+H]+
>parentmass 213.033585
#inchi InChI=1S/C8H8N2O3S/c9-14(11,12)5-7-6-3-1-2-4-8(6)13-10-7/h1-4H,5H2,(H2,9,11,12)
#inchikey UBQNRHZMVUUOMG
#Ion_Source LC-ESI
#Instrument qTof
#Compound_Source Isolated
#PI Sirenas
#Data_Collector Ed Esquenazi 
#Scan -1
#Precursor_MZ 213.033
#ExactMass 0.0
#Charge 1
#CAS_Number N/A
#Pubmed_ID N/A
#Smiles N/A
#INCHI_AUX N/A
#Library_Class 3
#SpectrumID CCMSLIB00000006067
#IonMode Positive
#UpdateWorkflowName UPDATE-SINGLE-ANNOTATED-BRONZE
#LibraryQualityString Bronze
#TaskID d19310cd93df49b68e9fcbec27720eb5
##Scan# 2
#SpectrumFile Zonisamide.mgf
#LibraryName fda_library.mgf
#MQScore -1
#Organism fda_library
#TIC_Query 0
#RT_Query -1
#MZErrorPPM -1
#SharedPeaks 0
#MassDiff 0
#LibMZ -1
#SpecMZ 213.033
#SpecCharge 0
#internalFilename spec-00000.mgf

>collision 10
101.641891 7.008333
102.034073 1365.80896
102.075127 11.66774
102.134537 22.136749
102.187164 5.335526
102.233231 14.92892
102.244957 2.791667
102.511223 15.00298
102.525047 5.002193
103.478447 4.107143
103.503113 7.371913
103.510994 19.560141
103.593216 11.14484
103.609314 2.520833
103.690781 11.40514
103.710556 25.002451
103.825539 4.166667
104.049431 4829.505859
104.091469 5.76923
104.109314 23.0625
104.130493 2.333333
104.153893 14.12037
104.176666 8.338542
104.195724 7.148809
104.209137 14.00833
104.229294 6.802778
104.247696 5.017857
104.300697 16.75379
104.325882 20.35507
104.350014 20.044451
104.375549 4.760417
104.432579 8.668651
104.453812 8.017544
104.492928 11.67105
104.530121 6.25926
104.548347 14.49342
104.593124 9.796296
104.62085 5.670455
104.772766 16.561991
104.844231 8.703947
105.033669 1640.088013
105.076958 4.7
105.167168 12.00924
105.337715 10.5307
105.408966 21.229259
105.788582 11.11574
105.92382 6.335318
106.035904 9.818548
106.2202 21.054489
106.921074 13.85417
108.45945 6.001667
108.651558 11.35376
108.771255 8.789634
112.728867 20.15238
119.456352 5.0625
120.043518 610.853882
120.071877 3.560185
120.092178 3.013889
120.218735 5.703947
120.27462 13.24282
120.386345 20.03253
120.416451 11.00333
122.058151 269.910309
122.105888 1.694445
129.535004 6.454545
130.037567 161.369202
130.068787 3.148809
130.217361 41.901058
130.23671 8.334459
130.665909 3.722222
131.263031 7.486111
131.274979 5.76923
131.36676 16.414221
131.390594 2.367424
131.406555 6.011364
131.422684 74.482147
131.44043 13.34746
131.455215 17.5977
131.496414 69.647186
131.51001 2.416667
131.518311 7.594136
131.542465 6.047619
131.574509 30.47695
131.613998 6.366936
131.717789 5.742284
131.763443 28.97761
131.813644 14.25494
131.833588 4.028846
131.90152 15.33333
131.958359 9.400001
131.977448 10.85799
132.043701 18653.619141
132.093781 177.743698
132.106506 46.48988
132.146149 44.910351
132.165817 19.85615
132.174591 6.906746
132.193527 11.78305
132.211716 59.496891
132.227997 70.978127
132.252563 15.38568
132.273483 53.866459
132.284729 30.77549
132.309738 23.34783
132.33522 43.48315
132.352371 12.18534
132.375961 32.812962
132.398254 29.65123
132.428284 6.12037
132.445679 5.00463
132.473755 29.233801
132.537537 7.435897
132.55043 39.22636
132.570984 14.45581
132.66983 4.844298
132.701813 10.11204
132.934357 20.889311
133.076599 12.13225
133.207764 17.92428
133.516602 9.117248
133.536575 3.094697
133.637222 4.336538
134.120819 18.02696
134.265335 3.375
134.321808 25.472601
134.332596 13.23148
134.458817 20.14414
149.072632 103.535896
150.052872 65.997421
150.644669 16.706699
173.962341 71.191872
194.575607 5.335318
202.484406 12.67064
211.922211 6.675
213.033585 78.405884
213.456345 15.49745
223.782913 4.694444
238.178375 9.688597
