>compound MLS001049096-01!3-hydroxy-8-methoxybenzo[c]chromen-6-one
>formula C14H10O4
>ionization [M+H]+
>parentmass 243.065994
#inchi InChI=1S/C14H10O4/c1-17-9-3-5-10-11-4-2-8(15)6-13(11)18-14(16)12(10)7-9/h2-7,15H,1H3
#inchikey IGJLBTGXYKPECW
#Ion_Source LC-ESI
#Instrument qTof
#Compound_Source NIH Natural Product Library
#PI Dorrestein
#Data_Collector VVP/LMS
#Scan -1
#Precursor_MZ 243.066
#ExactMass 242.058
#Charge 1
#CAS_Number N/A
#Pubmed_ID N/A
#Smiles COc1ccc2c(c1)c(=O)oc3cc(O)ccc32
#INCHI_AUX N/A
#Library_Class 1
#SpectrumID CCMSLIB00000080024
#IonMode Positive
#UpdateWorkflowName UPDATE-SINGLE-ANNOTATED-GOLD
#LibraryQualityString Gold
#TaskID b1d8e8f6646f4e71acdff9ca3d919d08
##Scan# 2026
#SpectrumFile p2-B03_GB3_01_17991.mzXML
#LibraryName NIH_Natural_Products_Library.mgf
#MQScore -1
#Organism NIH_Natural_Products_Library
#TIC_Query 0
#RT_Query -1
#MZErrorPPM -1
#SharedPeaks 0
#MassDiff 0
#LibMZ -1
#SpecMZ 243.066
#SpecCharge 0
#internalFilename spec-00000.mgf

>collision 10
95.423553 184.0
95.711517 124.0
95.750465 128.0
97.291298 160.0
97.422874 104.0
97.617455 124.0
97.652855 136.0
97.987503 28.0
98.14518 156.0
98.553764 216.0
99.157326 172.0
99.694763 164.0
99.967598 168.0
101.075096 104.0
101.585991 172.0
102.047241 332.0
102.063988 188.0
102.08812 120.0
102.458473 244.0
102.910217 244.0
103.054688 216.0
103.326599 72.0
103.409569 84.0
104.062309 148.0
104.090736 156.0
104.202454 228.0
104.2248 124.0
105.288162 64.0
105.493591 176.0
105.580414 144.0
106.198936 140.0
106.393875 92.0
106.953018 232.0
107.058014 180.0
107.183678 120.0
107.294975 152.0
107.503304 172.0
107.856468 140.0
108.052925 148.0
108.148117 204.0
108.235069 136.0
109.135597 164.0
109.891663 96.0
110.37207 152.0
110.759239 204.0
111.653366 92.0
111.750122 184.0
111.861664 200.0
112.321037 124.0
112.707382 160.0
113.060532 120.0
113.117676 120.0
113.634773 196.0
113.66024 172.0
113.855537 144.0
113.991493 252.0
114.040375 200.0
114.155182 136.0
114.174316 212.0
114.321106 132.0
114.465866 148.0
114.657593 88.0
114.749252 60.0
115.054047 1200.0
115.631477 208.0
116.060799 720.0
116.124252 100.0
116.426865 192.0
116.759979 180.0
116.828804 132.0
117.066467 220.0
117.768646 152.0
118.03981 332.0
118.073395 196.0
118.112328 208.0
118.304916 68.0
118.87278 132.0
118.981308 168.0
119.048622 156.0
120.33551 224.0
120.669785 152.0
120.704773 104.0
121.392365 184.0
122.068718 188.0
122.958725 248.0
123.402733 144.0
123.701393 224.0
124.38636 40.0
125.038879 236.0
125.164497 188.0
125.197899 84.0
125.313728 156.0
125.831161 168.0
126.048584 164.0
126.546616 184.0
126.586922 188.0
127.028458 176.0
127.054985 352.0
127.149399 188.0
127.172058 100.0
127.362915 88.0
127.920578 140.0
127.965599 156.0
128.006134 96.0
128.062943 14732.0
128.118744 160.0
128.163803 40.0
128.1931 48.0
128.216766 144.0
128.26799 52.0
128.294525 40.0
128.323837 92.0
128.406631 56.0
128.455383 40.0
128.535858 180.0
128.767593 96.0
128.912964 36.0
128.992081 96.0
129.067001 1588.0
129.317795 64.0
129.637115 128.0
129.705109 72.0
129.727783 32.0
129.866104 76.0
129.911469 64.0
130.044281 212.0
130.070312 180.0
130.111176 52.0
130.152039 124.0
130.301956 28.0
130.511047 124.0
130.881943 180.0
131.045197 176.0
131.755478 140.0
132.05983 560.0
132.803894 172.0
133.065506 160.0
133.214783 180.0
133.244644 152.0
133.711426 176.0
135.281021 64.0
135.681793 188.0
135.923019 148.0
136.034424 144.0
136.440598 180.0
136.706131 112.0
136.971542 44.0
137.356155 48.0
137.526489 172.0
139.053757 1264.0
139.137024 44.0
139.371887 224.0
140.065353 524.0
140.160156 52.0
140.296844 212.0
140.511459 48.0
141.069626 908.0
141.208313 108.0
142.198654 84.0
142.538254 188.0
142.816406 92.0
143.016281 64.0
143.04245 140.0
143.079361 144.0
143.418808 160.0
144.057159 1768.0
144.086975 188.0
144.371429 64.0
144.462311 100.0
144.778259 120.0
144.806992 128.0
145.063431 1168.0
146.016632 136.0
146.064728 184.0
146.180206 192.0
146.341492 148.0
146.589584 72.0
146.678757 140.0
146.934387 192.0
147.443878 120.0
147.811462 204.0
147.833237 140.0
147.930054 148.0
149.038406 184.0
149.369034 136.0
150.189911 84.0
150.643936 204.0
150.792999 96.0
150.983688 128.0
151.051605 208.0
151.194092 212.0
152.062027 592.0
152.437424 120.0
152.806244 168.0
153.069778 156.0
153.109009 176.0
153.355392 132.0
153.523041 160.0
153.678436 116.0
153.767273 264.0
154.039963 168.0
154.070282 180.0
154.372543 208.0
154.877426 148.0
155.049911 2720.0
155.32608 148.0
155.661133 124.0
156.008972 100.0
156.05751 6976.0
156.215378 60.0
156.237762 200.0
156.36467 168.0
156.382095 84.0
156.978806 124.0
157.024902 40.0
157.059143 228.0
158.014099 116.0
158.048355 196.0
158.101669 76.0
158.174255 120.0
158.306946 40.0
158.958588 224.0
159.026474 72.0
159.046555 232.0
159.081085 296.0
159.574112 120.0
160.047852 336.0
160.102524 228.0
160.319183 132.0
161.050842 148.0
161.837326 144.0
162.999054 188.0
164.365601 48.0
164.616623 80.0
165.099609 152.0
165.626846 104.0
166.028961 164.0
166.216507 188.0
166.874054 52.0
167.049652 300.0
167.710693 128.0
167.999512 72.0
168.057266 2332.0
168.828629 168.0
169.065948 600.0
169.139099 188.0
170.056656 156.0
170.654144 184.0
170.758163 48.0
170.987106 172.0
171.007935 44.0
171.043869 584.0
171.081802 1872.0
171.218811 48.0
171.554947 164.0
171.659225 160.0
171.987961 96.0
172.053253 1580.0
172.085358 340.0
172.47641 48.0
172.868713 120.0
172.970779 116.0
173.057053 376.0
173.311249 100.0
173.759583 96.0
175.078766 148.0
175.442734 88.0
175.717026 136.0
176.046967 64.0
179.060181 196.0
179.830215 120.0
180.4366 160.0
180.733475 156.0
181.060059 356.0
182.061661 164.0
182.840012 164.0
183.048828 376.0
183.176575 104.0
183.265488 120.0
183.553894 28.0
183.834442 40.0
183.883026 212.0
183.996399 132.0
184.052902 10172.0
184.128708 56.0
184.154541 68.0
184.225952 64.0
184.280518 60.0
184.344833 144.0
184.507004 148.0
184.60704 92.0
184.642197 164.0
185.055008 1076.0
185.126633 108.0
185.245804 96.0
185.370438 56.0
185.573715 40.0
185.768982 116.0
186.056503 232.0
186.089233 160.0
186.263031 104.0
186.605453 100.0
187.077072 776.0
187.277603 92.0
187.58551 48.0
188.045731 116.0
188.0858 208.0
193.56134 192.0
194.914993 224.0
195.051178 332.0
195.323685 36.0
196.016922 144.0
197.06282 424.0
198.067184 136.0
198.574905 200.0
198.912613 56.0
198.936646 244.0
199.009872 168.0
199.042694 168.0
199.076309 2012.0
199.203659 68.0
199.358185 128.0
199.808075 164.0
200.048813 1252.0
200.075912 124.0
200.131744 36.0
201.047882 100.0
201.067627 164.0
201.098679 172.0
207.310135 52.0
208.98996 176.0
212.049088 288.0
213.9944 88.0
214.061432 196.0
215.071793 172.0
225.053833 216.0
225.933594 92.0
226.056259 152.0
227.040466 412.0
228.043976 240.0
231.08432 92.0
237.4142 84.0
240.108246 60.0
242.058243 204.0
243.065994 1172.0
243.506485 48.0
244.075195 180.0
245.074341 136.0
245.202103 160.0
245.953781 36.0
249.540741 84.0
259.459442 100.0
282.33609 44.0
291.767517 32.0
294.394562 48.0
306.457764 44.0
334.794098 80.0
354.335999 64.0
427.105652 68.0
434.350769 48.0
580.263062 120.0
621.20459 36.0
635.994751 108.0
640.661194 164.0
667.48999 36.0
793.293091 160.0
906.83783 272.0
918.979065 140.0
942.623535 128.0
948.835999 184.0
972.126709 224.0
988.609497 68.0
1003.578247 128.0
1003.628723 64.0
1012.291748 188.0
1018.437134 72.0
1031.115967 196.0
1032.445801 116.0
1041.309082 164.0
1057.776733 100.0
1071.00354 164.0
1096.708008 148.0
1116.776733 176.0
1128.981445 216.0
1134.237183 140.0
1138.739258 148.0
1140.136719 152.0
1147.750122 148.0
1156.579712 172.0
1157.764526 164.0
1172.104614 156.0
1176.032715 136.0
1183.244385 204.0
1188.611084 200.0
1197.775391 168.0
1208.65564 164.0
1212.311768 148.0
1222.860962 112.0
1223.08374 156.0
1223.284668 164.0
1234.812256 152.0
1240.630981 100.0
1248.888794 216.0
1254.366821 164.0
1258.253784 108.0
1262.26001 188.0
1264.721924 136.0
1265.606812 136.0
1267.412964 80.0
1267.646851 228.0
1269.695557 192.0
1270.333862 124.0
1270.759521 48.0
1272.186035 76.0
1284.054443 144.0
1285.024536 84.0
1287.187256 64.0
1289.537598 172.0
1292.090332 156.0
1293.306885 128.0
1297.24646 192.0
1299.31897 280.0
1300.230225 192.0
1305.970703 200.0
1318.385498 116.0
1319.802368 196.0
1320.120483 68.0
1335.910034 188.0
1337.394409 120.0
1338.471924 72.0
1344.00415 172.0
1347.39917 156.0
1371.460938 160.0
1376.49231 92.0
1377.496826 168.0
1385.21936 140.0
1386.189941 172.0
1390.862183 188.0
1395.921631 188.0
1402.994751 200.0
1407.090454 56.0
1409.323608 196.0
1411.835205 148.0
1425.26062 132.0
1428.899658 92.0
1431.165039 100.0
1431.797607 36.0
1431.895508 140.0
1432.151611 76.0
1433.462402 128.0
1435.701294 140.0
1452.286865 144.0
1462.483398 160.0
1463.480591 120.0
1465.796143 164.0
1468.28125 188.0
1470.333496 148.0
1474.113647 164.0
1474.174683 56.0
1483.151978 252.0
1484.255981 200.0
1486.749023 112.0
1488.115356 144.0
1494.425293 84.0
1495.833618 88.0
1496.980835 252.0
1497.073242 220.0
1497.966675 124.0
1498.529053 148.0
1500.517456 76.0
