>compound MLS002207242-01!Propoxur114-26-1
>formula C11H15NO3
>ionization [M+H]+
>parentmass 210.113
#inchi InChI=1S/C11H15NO3/c1-8(2)14-9-6-4-5-7-10(9)15-11(13)12-3/h4-8H,1-3H3,(H,12,13)
#inchikey ISRUGXGCCGIOQO
#Ion_Source LC-ESI
#Instrument qTof
#Compound_Source NIH Pharmacologically Active Library
#PI Dorrestein
#Data_Collector VP/LMS
#Scan -1
#Precursor_MZ 210.113
#ExactMass 209.105
#Charge 1
#CAS_Number N/A
#Pubmed_ID N/A
#Smiles CNC(=O)Oc1ccccc1OC(C)C
#INCHI_AUX N/A
#Library_Class 1
#SpectrumID CCMSLIB00000085919
#IonMode Positive
#UpdateWorkflowName UPDATE-SINGLE-ANNOTATED-GOLD
#LibraryQualityString Gold
#TaskID d252d724072548979f1f6f1ced849daf
##Scan# 1742
#SpectrumFile p4-G11_GG11_01_18407.mzXML
#LibraryName Pharm_Active_Library.mgf
#MQScore -1
#Organism Pharm_Active_Library
#TIC_Query 0
#RT_Query -1
#MZErrorPPM -1
#SharedPeaks 0
#MassDiff 0
#LibMZ -1
#SpecMZ 210.113
#SpecCharge 0
#internalFilename spec-00000.mgf

>collision 10
46.260426 152.0
49.322979 164.0
49.385902 180.0
51.916302 256.0
56.405785 196.0
59.561005 48.0
61.53875 44.0
61.710621 192.0
63.201786 80.0
63.425095 148.0
64.111725 140.0
70.906189 136.0
71.981209 176.0
74.309853 116.0
78.389565 188.0
78.832512 156.0
80.690063 228.0
84.281754 172.0
85.725945 136.0
85.967529 112.0
89.962166 152.0
92.347008 136.0
92.442665 96.0
92.827721 164.0
93.033188 2100.0
93.540535 164.0
94.033997 168.0
94.503593 104.0
94.668129 260.0
98.454491 376.0
105.067406 200.0
106.483955 64.0
107.049522 132.0
107.206093 36.0
108.34877 52.0
109.033539 260.0
110.532982 208.0
111.043915 5956.0
111.143921 116.0
111.180534 60.0
111.201523 72.0
111.223389 48.0
111.365295 92.0
111.558624 72.0
112.047508 432.0
112.070061 76.0
112.232361 44.0
118.703682 124.0
123.940849 80.0
130.068512 208.0
134.075912 108.0
137.025818 152.0
146.051315 36.0
150.953079 204.0
151.945114 112.0
168.065811 184.0
168.083878 136.0
171.953369 88.0
174.9785 136.0
222.896423 84.0
223.970459 132.0
225.061996 160.0
246.930557 124.0
287.69223 64.0
511.580505 20.0
820.571106 196.0
849.169922 196.0
901.467529 212.0
980.44928 184.0
987.348083 176.0
1048.030518 140.0
1155.400513 208.0
1161.21936 136.0
1175.438232 192.0
1201.974609 224.0
1210.574219 180.0
1226.206055 196.0
1233.122925 196.0
1236.963013 112.0
1237.509155 108.0
1242.085571 272.0
1277.620361 284.0
1305.121582 276.0
1308.193848 188.0
1340.571289 164.0
1349.104004 128.0
1364.735474 56.0
1386.890869 128.0
1434.343872 192.0
1441.559326 140.0
1466.415039 144.0
1467.459351 148.0
1475.063354 112.0
1490.998901 144.0
1504.146973 112.0
