>compound Tranilast
>formula C18H17NO5 
>ionization [M+H]+
>parentmass 328.119
#inchi InChI=1S/C18H17NO5/c1-23-15-9-7-12(11-16(15)24-2)8-10-17(20)19-14-6-4-3-5-13(14)18(21)22/h3-11H,1-2H3,(H,19,20)(H,21,22)/b10-8+
#inchikey NZHGWWWHIYHZNX
#Ion_Source LC-ESI
#Instrument qTof
#Compound_Source Isolated
#PI Sirenas
#Data_Collector Ed Esquenazi 
#Scan -1
#Precursor_MZ 328.119
#ExactMass 0.0
#Charge 1
#CAS_Number N/A
#Pubmed_ID N/A
#Smiles N/A
#INCHI_AUX N/A
#Library_Class 3
#SpectrumID CCMSLIB00000006385
#IonMode Positive
#UpdateWorkflowName UPDATE-SINGLE-ANNOTATED-BRONZE
#LibraryQualityString Bronze
#TaskID d19310cd93df49b68e9fcbec27720eb5
##Scan# 3
#SpectrumFile Tranilast.mgf
#LibraryName fda_library.mgf
#MQScore -1
#Organism fda_library
#TIC_Query 0
#RT_Query -1
#MZErrorPPM -1
#SharedPeaks 0
#MassDiff 0
#LibMZ -1
#SpecMZ 328.119
#SpecCharge 0
#internalFilename spec-00000.mgf

>collision 10
103.055649 196.475906
104.425041 5.531863
105.03054 50.044121
105.03611 155.704193
105.071808 119.443604
105.152893 19.26298
105.344604 6.011364
108.993439 48.629189
115.052368 68.086372
115.482391 5.371913
116.411285 3.066667
117.299675 13.70417
117.841698 6.714285
118.039474 129.753296
119.04847 229.077805
119.181923 8.777778
119.47213 20.543859
119.684631 5.742284
120.054375 191.548706
120.263832 7.386905
120.366859 6.0625
120.431778 6.853395
121.024918 42.903381
121.044479 5.518939
130.042953 62.512821
131.044937 33.92033
131.369675 9.633333
132.056366 583.123413
132.089691 2.675
132.252533 4.115741
132.341751 16.354839
132.386093 5.296568
132.521637 6.564103
133.029556 338.212097
133.162445 3.416667
133.416168 2.337963
133.48851 8.0
133.515167 8.708333
133.865616 4.416667
134.07283 43.541672
134.406509 17.47748
136.934998 8.016666
138.520309 14.46759
143.051498 9.003788
145.027206 76.336197
145.063843 2.337121
146.026047 78.535248
146.060699 1.791667
146.172333 15.88741
146.340408 4.75
146.488663 33.374161
147.04422 51.67244
147.21286 13.27348
148.051117 707.587585
148.104843 2.722222
148.176819 8.672222
148.401474 9.375
148.438858 15.25338
148.856125 16.74107
149.586227 4.416667
159.519455 15.76587
160.04718 72.096252
161.062271 138.479507
162.334778 3.002451
163.075653 665.179321
163.111374 4.691667
163.132965 11.59572
163.303131 17.77688
163.46257 11.92628
163.516006 2.761364
163.55159 15.70833
164.027939 9.497093
164.299835 6.391026
164.657684 26.861481
165.327057 7.696428
175.03833 19.16667
176.046906 144.031097
191.069916 420.265991
191.585434 11.3913
223.288925 6.66821
234.00206 7.444445
