>compound MLS000876947-01!7-(2,3-dihydroxy-3-methylbutoxy)-6-methoxychromen-2-one
>formula C15H18O6
>ionization [M+H]+
>parentmass 295.118
#inchi InChI=1S/C15H18O6/c1-15(2,18)13(16)8-20-12-7-10-9(6-11(12)19-3)4-5-14(17)21-10/h4-7,13,16,18H,8H2,1-3H3
#inchikey WXTWDABXJFQNRI
#Ion_Source LC-ESI
#Instrument qTof
#Compound_Source NIH Natural Product Library
#PI Dorrestein
#Data_Collector VVP/LMS
#Scan -1
#Precursor_MZ 295.118
#ExactMass 294.11
#Charge 1
#CAS_Number N/A
#Pubmed_ID N/A
#Smiles COc1cc2ccc(=O)oc2cc1OCC(O)C(C)(C)O
#INCHI_AUX N/A
#Library_Class 1
#SpectrumID CCMSLIB00000079590
#IonMode Positive
#UpdateWorkflowName UPDATE-SINGLE-ANNOTATED-GOLD
#LibraryQualityString Gold
#TaskID b1d8e8f6646f4e71acdff9ca3d919d08
##Scan# 1575
#SpectrumFile p1-E08_GE8_01_17928.mzXML
#LibraryName NIH_Natural_Products_Library.mgf
#MQScore -1
#Organism NIH_Natural_Products_Library
#TIC_Query 0
#RT_Query -1
#MZErrorPPM -1
#SharedPeaks 0
#MassDiff 0
#LibMZ -1
#SpecMZ 295.118
#SpecCharge 0
#internalFilename spec-00000.mgf

>collision 10
95.964401 140.0
96.178993 28.0
96.25927 164.0
96.387955 184.0
97.033852 32.0
97.481369 160.0
97.508881 204.0
97.772415 136.0
98.978554 140.0
99.275787 172.0
99.329338 184.0
101.308807 152.0
101.910675 176.0
101.972786 220.0
103.599312 148.0
104.262802 72.0
104.734818 152.0
105.032867 672.0
105.712738 256.0
106.03756 308.0
107.026451 128.0
107.0522 176.0
107.311813 20.0
107.783447 220.0
107.930199 168.0
108.64888 180.0
109.064186 140.0
109.089134 188.0
109.615692 144.0
111.646263 40.0
114.590675 164.0
115.611328 152.0
116.688103 132.0
117.032455 328.0
118.683105 96.0
119.708725 184.0
120.251556 152.0
121.027603 196.0
121.446167 160.0
121.968742 152.0
122.035973 1100.0
122.23925 188.0
125.419571 212.0
125.5578 172.0
126.706718 180.0
126.901703 144.0
127.343773 120.0
128.04097 220.0
129.029297 208.0
129.128784 68.0
129.740158 208.0
129.939728 152.0
130.305252 136.0
131.29541 156.0
131.516724 172.0
132.193192 128.0
133.028458 5644.0
133.096329 32.0
133.121582 128.0
133.183594 48.0
133.238724 60.0
133.691696 120.0
134.032227 328.0
134.099319 56.0
134.147736 60.0
134.332214 152.0
134.399109 64.0
134.417572 96.0
134.750061 76.0
134.860977 36.0
134.937256 116.0
134.997375 92.0
135.045837 172.0
136.104996 144.0
137.060501 1460.0
137.177521 60.0
137.245132 32.0
138.058426 232.0
140.238785 44.0
140.62323 240.0
141.964615 244.0
142.807709 160.0
143.331451 176.0
143.402939 216.0
144.324402 96.0
144.599503 44.0
144.731155 164.0
145.037796 160.0
146.060684 176.0
146.303726 56.0
146.619263 152.0
147.043716 120.0
147.538895 192.0
147.674301 52.0
148.214142 156.0
149.02211 184.0
149.0569 252.0
150.031189 1564.0
150.395569 204.0
151.030716 152.0
151.625793 44.0
152.050064 76.0
153.832092 212.0
154.182816 180.0
154.598282 104.0
154.944931 168.0
155.703949 128.0
161.022766 208.0
161.713791 152.0
164.137344 60.0
165.05304 748.0
166.055313 160.0
166.591766 124.0
168.446472 216.0
168.712646 144.0
169.903915 148.0
175.99968 52.0
177.022995 340.0
177.089203 196.0
177.669708 208.0
177.844849 168.0
177.945724 148.0
177.99086 260.0
178.025787 6804.0
178.128967 72.0
178.227264 36.0
178.817612 40.0
179.03334 564.0
179.817047 176.0
180.383301 72.0
183.042038 116.0
183.408432 100.0
183.783279 144.0
184.977798 144.0
186.442413 148.0
188.163895 52.0
188.587311 140.0
189.320511 188.0
189.972839 64.0
190.401016 112.0
191.473572 168.0
192.585052 148.0
192.828186 160.0
192.853073 156.0
192.908356 132.0
192.933228 164.0
193.049103 10064.0
193.101898 64.0
193.132324 104.0
193.182114 48.0
193.295547 56.0
193.414551 44.0
193.475449 52.0
193.522522 76.0
194.004578 164.0
194.052307 832.0
194.198669 44.0
194.312408 40.0
195.048843 144.0
195.240143 128.0
195.292984 120.0
195.331924 76.0
195.373657 128.0
195.476608 76.0
195.507217 120.0
195.635254 64.0
195.863586 60.0
199.60257 76.0
204.926758 112.0
205.037888 76.0
208.923447 112.0
209.03566 248.0
295.108276 252.0
296.105988 64.0
397.987885 104.0
433.687103 64.0
440.143677 68.0
564.997131 108.0
575.854004 20.0
576.780884 88.0
853.11853 20.0
942.746826 204.0
969.61615 212.0
1018.863647 192.0
1030.433105 172.0
1091.323975 152.0
1100.6604 168.0
1116.385132 156.0
1126.208618 204.0
1153.996338 140.0
1158.747437 172.0
1162.08313 152.0
1178.662598 124.0
1193.454224 120.0
1222.659912 148.0
1226.936646 168.0
1249.417114 248.0
1265.96167 140.0
1267.470459 92.0
1269.923218 212.0
1277.210571 204.0
1315.367432 32.0
1334.550903 180.0
1336.543945 236.0
1343.873779 132.0
1346.136475 136.0
1350.360474 112.0
1360.039185 140.0
1360.956909 140.0
1371.51355 252.0
1371.58728 28.0
1372.72998 180.0
1386.80603 116.0
1393.960205 172.0
1399.516479 148.0
1402.764648 156.0
1406.912354 164.0
1408.084595 116.0
1437.776978 84.0
1438.305298 156.0
1447.725708 136.0
1452.970825 132.0
1466.704346 152.0
1487.83252 120.0
1491.127808 132.0
1493.665039 188.0
1495.796509 176.0
1498.384033 136.0
