>compound Etodolac
>formula C17H21NO3 
>ionization [M+H]+
>parentmass 288.161
#inchi InChI=1S/C17H21NO3/c1-3-11-6-5-7-12-13-8-9-21-17(4-2,10-14(19)20)16(13)18-15(11)12/h5-7,18H,3-4,8-10H2,1-2H3,(H,19,20)
#inchikey NNYBQONXHNTVIJ
#Ion_Source LC-ESI
#Instrument qTof
#Compound_Source Isolated
#PI Sirenas
#Data_Collector Ed Esquenazi 
#Scan -1
#Precursor_MZ 288.161
#ExactMass 0.0
#Charge 1
#CAS_Number N/A
#Pubmed_ID N/A
#Smiles N/A
#INCHI_AUX N/A
#Library_Class 3
#SpectrumID CCMSLIB00000006121
#IonMode Positive
#UpdateWorkflowName UPDATE-SINGLE-ANNOTATED-BRONZE
#LibraryQualityString Bronze
#TaskID d19310cd93df49b68e9fcbec27720eb5
##Scan# 3
#SpectrumFile Etodolac.mgf
#LibraryName fda_library.mgf
#MQScore -1
#Organism fda_library
#TIC_Query 0
#RT_Query -1
#MZErrorPPM -1
#SharedPeaks 0
#MassDiff 0
#LibMZ -1
#SpecMZ 288.161
#SpecCharge 0
#internalFilename spec-00000.mgf

>collision 10
101.037727 88.307838
101.061852 3.080128
102.033264 35.66724
102.045479 83.173157
103.053223 189.627396
103.719788 5.444445
104.048256 99.436577
104.216278 3.005953
104.287437 5.395833
105.069977 85.777962
105.088562 8.054825
105.223259 15.10256
106.0644 34.856979
114.037491 44.42857
114.520554 13.04748
115.054367 2039.860962
115.081863 44.611881
115.09903 10.13426
115.128197 12.00298
115.203072 11.04545
115.236473 5.729167
115.277565 7.008333
115.341064 14.67778
115.372826 2.166667
115.400948 36.005138
115.4617 20.05538
115.498039 7.69482
115.527977 11.04167
115.603401 37.568081
115.651375 8.491228
115.890938 9.666667
116.061386 1101.258057
116.205612 9.0625
116.213326 15.18382
116.25238 27.55208
116.349319 13.64329
116.427841 5.741667
116.460899 7.334459
116.489502 40.664661
116.505951 13.4406
116.515999 16.450001
116.534782 15.44277
116.551018 3.36218
116.569412 4.190476
116.603607 16.683741
116.613968 17.22715
116.883125 26.321541
116.952225 4.041667
117.056328 1027.94397
117.069061 5237.754883
117.116898 25.90686
117.128036 38.035091
117.151787 30.936991
117.161354 9.426724
117.176537 6.813406
117.184723 10.75
117.20974 27.0832
117.236572 11.77778
117.246712 22.7663
117.260246 22.81683
117.309784 18.163879
117.348602 4.388158
117.355438 10.41523
117.369789 4.973485
117.405228 6.003205
117.420013 8.716269
117.42775 6.378623
117.438461 9.948333
117.462471 4.297619
117.499474 30.003201
117.577187 9.573413
117.677689 9.5
118.267349 19.79431
118.332855 7.613636
118.508698 12.91204
118.586655 16.410259
119.407669 5.708333
120.722801 7.429762
121.717361 41.777779
124.540619 9.375
127.054016 1812.880981
127.085617 12.75
127.118729 43.476891
127.182739 11.78205
127.19519 37.570049
127.288696 8.380815
127.30442 10.14405
127.339912 3.490385
127.590607 14.61404
128.058578 578.166626
128.303207 12.54825
128.311218 7.458333
128.325027 4.958333
128.34079 4.75
128.359024 6.371212
128.405823 7.130208
128.480652 7.909483
128.772598 4.166667
129.236435 9.108974
129.262619 5.774123
129.336975 8.166667
129.376434 23.125099
129.52388 5.016304
129.589813 16.148809
129.789291 5.679598
129.817032 6.095238
130.065063 2211.562988
130.112274 7.382936
130.225616 5.366667
130.328857 5.708333
130.40448 18.42178
130.448013 3.367424
130.475845 15.92547
130.559311 12.64198
130.571213 1.694445
130.678604 5.371913
130.726318 10.96014
130.736404 8.506945
130.843155 9.897988
131.085571 56.970539
131.471283 14.0
132.045761 23.15369
133.099487 35.121208
134.09375 47.814819
137.92276 11.375
138.069885 15.37957
140.046646 31.6124
140.669601 10.92287
141.067307 60.463169
141.082504 12.4
141.11557 7.108871
141.223038 5.694445
141.798294 8.816667
142.064865 1356.239014
142.088531 27.004391
142.102051 48.689041
142.114563 3.226852
142.139389 16.40752
142.179672 8.407407
142.189117 29.07062
142.200409 7.022223
142.222351 14.89352
142.229401 4.380952
142.242233 11.41565
142.255386 45.981869
142.275665 81.44313
142.285278 50.419399
142.309891 43.39259
142.332367 102.395103
142.353012 66.056747
142.372559 130.0802
142.390045 70.233521
142.409576 6.1875
142.420502 20.671049
142.429886 49.844662
142.444702 7.75
142.452377 9.224999
142.461884 6.023809
142.474945 38.219391
142.504272 128.521393
142.533859 18.533331
142.547089 18.76746
142.567184 34.406528
142.591599 20.67045
142.6297 30.344931
142.668762 41.58102
142.723984 21.63014
142.764114 25.864201
142.798447 6.201666
142.856827 13.59559
142.904007 9.826755
142.915314 18.861019
142.95163 16.7631
142.961868 11.91667
142.999603 37.678638
143.027161 11.11111
143.044662 121.094002
143.073441 63703.070312
143.21875 45.588421
143.230637 25.34849
143.242874 41.00695
143.315811 158.426193
143.403214 136.636398
143.413742 83.028503
143.43425 129.249405
143.450989 19.56506
143.467743 126.829697
143.485855 9.532828
143.493622 25.652439
143.519714 126.963699
143.534729 51.12051
143.559372 20.40089
143.572357 48.931931
143.587219 43.978249
143.593491 38.045761
143.610947 50.19315
143.619507 14.67064
143.639038 64.692833
143.648407 21.10865
143.662872 51.344528
143.672195 33.12125
143.694489 52.920269
143.728302 16.92754
143.735886 20.415541
143.749756 125.656799
143.76297 58.549858
143.769119 18.310261
143.797897 9.670834
143.826584 29.006149
143.852127 12.89943
143.862106 5.84375
143.876343 49.96843
143.96904 8.027778
144.06012 114.577698
144.080872 30264.990234
144.133118 257.579193
144.178177 82.415497
144.204681 107.927498
144.2314 65.638786
144.245987 52.547878
144.277008 125.228104
144.303345 48.744171
144.340866 47.859009
144.359009 30.107759
144.37146 29.65275
144.405945 38.684441
144.434662 49.177052
144.446686 26.353069
144.471573 66.108131
144.530228 23.56481
144.54718 24.81424
144.572464 32.05423
144.619705 45.136219
144.662674 38.694561
144.784317 20.92918
144.83017 23.71249
144.860291 39.57576
144.877075 22.85417
144.918015 19.837099
144.94725 18.34248
145.100845 185.669495
145.147049 12.01389
145.193024 13.05813
145.341385 9.337302
145.521912 16.43219
145.586121 3.560185
145.698486 17.09524
145.763824 28.354139
145.849319 9.789634
145.878723 12.00362
146.067993 5.003788
146.139191 7.594136
146.210663 7.958333
146.29921 4.44079
146.387772 16.669451
146.421875 10.18939
146.508774 9.814815
146.610764 11.13286
146.652908 7.560484
146.825684 8.601191
147.033157 16.024309
147.523941 11.09524
147.860306 9.463542
149.373611 9.714286
149.57019 9.429762
149.802414 5.84375
150.587738 10.06944
152.067062 42.802731
153.068604 77.096451
153.4021 6.777778
153.932022 20.218941
154.065979 333.569885
154.081238 31.296671
154.126862 3.669118
154.175659 8.3
154.247864 6.564103
154.269409 3.668651
154.476913 17.013889
154.528778 12.01766
154.554733 12.38272
154.65361 3.027778
154.697784 24.02738
155.076324 439.368896
155.108826 3.669118
155.197647 3.25
155.273361 3.041667
155.316589 9.35307
155.654968 3.375
155.713058 6.518939
156.046417 9.122475
156.079773 2913.611084
156.13591 13.80529
156.150421 2.722222
156.163452 5.690476
156.180847 5.395833
156.196533 31.993891
156.233063 44.02121
156.272049 14.68003
156.290009 15.36915
156.302612 6.408951
156.338165 22.167101
156.359589 8.281667
156.376526 19.866671
156.407166 4.016667
156.430649 34.62714
156.467926 10.12927
156.481003 16.570829
156.585052 6.481482
156.611542 15.16447
156.649734 11.18534
156.66008 8.112655
156.695175 17.705601
156.716064 9.385684
156.756165 12.89286
156.862625 4.266667
157.08847 7957.541992
157.154938 15.96627
157.163483 26.333941
157.182404 8.763095
157.200348 99.433907
157.220932 19.23188
157.260101 51.653011
157.287109 5.668651
157.300171 27.343069
157.313278 15.00309
157.368561 10.55833
157.400162 41.460091
157.43985 17.398439
157.455368 16.75362
157.477036 31.741871
157.504562 13.82996
157.525696 14.47222
157.548996 6.053572
157.566681 26.062241
157.58812 9.573718
157.610184 6.564103
157.636353 28.0
157.675659 6.0
157.74144 4.898148
157.867966 6.075
158.136566 15.14969
158.144714 2.583333
158.31427 19.4692
158.331589 9.060606
158.368484 32.471352
158.511124 8.667683
158.581207 6.67803
158.655701 3.736111
158.708282 8.469594
158.98912 9.729167
159.069443 36.708328
159.322449 10.60093
159.39711 17.86046
160.003799 4.75
160.07338 48.564339
160.479431 5.121212
163.605911 5.054824
165.066605 17.63575
166.065186 118.642502
166.08316 22.573721
166.156601 16.720091
166.165588 14.80965
166.207275 19.18667
166.237335 3.34375
166.291168 9.666667
166.337143 7.523551
167.072098 1930.75
167.122513 7.575
167.15062 24.91468
167.269424 7.190476
167.280853 7.927083
167.294876 3.802778
167.309525 31.758329
167.352509 7.564815
167.378693 10.34833
167.406418 8.232527
167.518143 8.339286
167.599197 15.89189
167.608215 6.685185
167.73027 26.12911
167.829208 11.87879
167.851517 4.358333
168.080856 2110.020996
168.136215 11.2532
168.172638 25.75559
168.207779 9.253379
168.266495 3.746795
168.315414 25.61795
168.327713 14.27222
168.338638 3.680556
168.358093 24.61808
168.38063 9.8
168.413193 28.278851
168.469406 3.020833
168.540146 9.041667
168.635605 17.408331
169.002365 8.013888
169.224487 25.000401
169.374008 6.449713
169.432724 17.004629
169.558273 2.708333
169.695663 5.541667
170.055984 76.795464
170.068344 26.08696
170.096115 395.150299
170.212494 3.010417
170.244278 8.018518
170.349167 22.57843
170.471313 7.696428
170.771439 17.18968
170.976151 22.843161
171.040955 37.436951
171.103073 745.995789
171.141937 4.083333
171.150864 16.36058
171.177994 25.32703
171.198837 9.713542
171.207779 14.79264
171.217072 13.08255
171.235245 16.037041
171.265198 14.02778
171.290756 6.337963
171.300049 17.688601
171.337372 37.337891
171.380966 6.011364
171.431046 13.81439
171.453766 24.679529
171.463913 52.721218
171.500732 11.51923
171.595093 5.388158
171.635239 12.40833
171.652054 13.41667
171.704483 11.00556
171.76442 9.920635
171.891418 20.00214
172.083374 10.03157
172.112091 19874.300781
172.163498 47.110039
172.18718 70.684036
172.215393 10.84722
172.231689 51.79845
172.241135 31.2197
172.252716 49.92094
172.266327 31.463421
172.278656 21.125
172.301208 46.839939
172.315872 5.019737
172.329178 87.721649
172.344452 65.255676
172.375946 62.808849
172.397415 30.01013
172.413788 79.383926
172.435181 51.753819
172.458527 59.963848
172.488373 41.219059
172.513 34.66592
172.528015 7.653986
172.538467 42.07349
172.560715 28.95776
172.571701 3.722222
172.583832 22.08573
172.621902 40.754139
172.642426 31.959999
172.653961 13.00321
172.703308 38.949451
172.721069 51.288631
172.754318 40.21497
172.7827 13.05482
172.888809 18.480261
173.366333 7.2
173.610321 19.14583
173.651932 11.00126
173.812424 10.3373
173.826172 9.35874
173.89003 22.8652
174.088348 25.586691
174.165756 7.001016
175.237152 8.240196
175.63942 3.266667
175.979965 6.371212
176.05307 4.080128
176.159409 9.001068
176.556717 8.023809
178.020477 7.666667
178.07431 197.408401
178.178375 65.714256
178.260498 3.1875
178.341507 11.3344
178.734833 31.85677
178.801682 5.347222
179.072861 154.393097
179.098221 24.334351
179.117691 15.67581
179.313171 9.341311
179.336502 10.71429
179.508911 9.375
179.765366 3.0
179.951828 10.18704
179.993988 8.333333
180.08078 5498.526855
180.139313 53.19326
180.154251 21.313101
180.176758 12.54762
180.208496 11.09342
180.224442 24.382839
180.269379 27.800711
180.283539 24.68371
180.30217 9.003968
180.321686 17.16667
180.338959 34.583519
180.370377 14.79167
180.383255 30.36799
180.409622 4.711957
180.469513 62.743969
180.479721 4.35307
180.525024 25.00399
180.548553 14.61283
180.568558 23.97677
180.669815 7.816667
180.716034 13.09091
180.756729 2.520833
180.809082 10.52904
181.066696 246.627502
181.088821 3797.717041
181.163025 11.87729
181.18158 17.16021
181.195618 8.893817
181.217667 10.75
181.252182 27.285601
181.275162 16.394699
181.284729 10.67045
181.378174 20.490391
181.415848 3.670455
181.453156 11.45333
181.509399 7.880051
181.531708 11.87585
181.57663 22.248369
181.598557 13.02083
181.626572 8.681666
181.70903 41.552879
182.030014 28.67284
182.096603 2901.785889
182.159958 21.035259
182.175552 8.0
182.19899 5.011905
182.327942 34.979591
182.354019 4.686404
182.50058 34.226471
182.862839 11.85965
182.876053 13.84396
183.067322 133.923294
183.103638 778.557617
183.199005 19.3344
183.393723 4.002451
183.412857 5.760417
183.435791 4.700758
183.682648 9.8
184.07283 138.324707
184.163818 3.025
184.209839 7.656609
184.403915 9.556818
185.121078 303.055115
185.197815 15.03125
185.680527 6.736111
185.92157 2.893518
186.003265 17.944441
186.09021 36.3545
186.123611 136.471497
186.250992 6.98077
187.135086 54.09864
189.110596 8.518678
191.077698 60.019329
191.244995 21.43251
191.711761 6.022223
192.015274 23.767469
192.082474 95.55999
192.09375 94.89801
192.290222 6.0
192.34343 3.125
192.622772 10.075
193.089523 142.882401
193.135239 9.708333
193.160065 30.26449
193.19339 12.3787
193.22728 11.36232
193.277313 21.000641
193.295364 10.18673
193.992783 10.29643
194.018723 3.625
194.0578 16.3787
194.096359 3758.447998
194.156845 40.814411
194.168228 46.81636
194.19928 34.081879
194.215027 2.4
194.234573 42.35099
194.276413 16.08333
194.3237 24.62298
194.363998 43.828819
194.384842 14.17754
194.413544 7.219203
194.529236 3.041667
194.603455 9.022223
194.798386 38.43364
194.851517 11.40789
194.981247 8.921875
195.006088 12.33611
195.052979 40.46944
195.103973 2965.787109
195.145172 9.653985
195.18306 14.23132
195.258774 7.66821
195.274429 40.137402
195.395386 5.633333
195.409775 11.87879
195.458252 22.367121
195.481705 21.90774
195.523956 28.35833
195.598404 35.674999
195.647888 6.698232
195.720886 13.66667
195.821289 18.51923
195.866913 7.0
195.944824 4.333333
196.020172 53.99342
196.071655 169.925293
196.112167 2431.25708
196.180435 7.083333
196.247345 13.97543
196.290802 6.535
196.3638 17.01235
196.374008 8.081897
196.401855 18.693781
196.464706 21.282709
196.632065 9.117248
196.700485 25.43655
196.754044 17.056311
196.812607 13.0572
196.871582 11.77193
196.981506 15.46667
197.080841 81.197289
197.119507 561.699219
197.340042 17.66745
197.863525 8.708333
197.936722 6.679598
198.091141 116.028999
198.445175 14.67738
198.705902 10.45333
199.092834 176.605392
199.129532 86.114319
199.216248 8.066667
200.102585 119.7463
200.141541 87.07489
200.262405 5.592949
200.444351 8.151515
201.146652 58.152611
203.844177 8.45
204.086365 31.90476
205.08902 28.519381
205.177032 6.357143
206.09256 20.75362
207.102005 104.096001
207.22139 26.79073
207.817383 12.27447
207.839676 5.680555
208.00267 14.38782
208.07486 380.151611
208.112152 2139.623047
208.269684 22.5625
208.32843 9.724999
208.720062 35.40398
208.847824 7.008333
208.876816 21.981609
208.891205 11.04344
208.907349 43.999401
208.94902 4.5
208.976639 18.676279
209.037033 10.76179
209.062149 8.880051
209.157776 10.01136
209.183395 6.427083
209.292236 9.809525
209.313736 16.83333
209.362869 25.5187
209.580307 8.116667
209.953491 4.120098
210.019379 22.5625
210.090591 271.005188
210.127396 3188.8479
210.188217 30.553671
210.261078 5.702587
210.301437 12.5744
210.457855 9.0
210.486298 18.51734
210.53862 3.0
210.627106 22.352221
210.760117 6.265351
210.780991 12.75833
211.018463 8.847222
211.20546 8.699275
211.319992 3.075
212.030365 5.010417
212.070206 4.963235
212.10524 80.329613
212.380051 8.136261
213.110718 88.763893
214.866638 21.69808
219.111832 10.09091
219.43927 19.01923
219.671234 12.82036
219.743393 14.67083
220.116028 18.445101
220.574493 6.666667
220.698532 5.160714
221.008713 5.037037
221.081055 74.742264
221.723007 6.698232
222.091873 355.878204
222.12822 226.248199
222.160858 7.684524
222.293472 5.939394
222.796616 5.840278
222.954712 30.714741
223.097763 279.251495
223.446014 18.93576
223.732208 9.681666
223.972351 14.64209
224.055008 5.444445
224.143631 441.531403
224.185043 3.041667
224.253433 4.225
224.424896 6.013889
224.537354 14.2
224.560394 13.71415
224.627151 14.27222
225.3022 24.3391
226.086685 140.762207
226.156845 30.76907
228.101913 26.82843
228.138153 135.154999
228.203491 8.4375
228.501114 14.22917
228.582031 5.030303
230.209656 13.2963
236.104126 78.100052
236.395248 6.668333
237.407425 3.041667
238.122467 276.731506
240.097427 73.805779
241.108658 115.940804
241.595886 17.00071
252.138031 122.505699
252.179916 1.675
254.759308 8.755208
256.232697 8.333333
256.355072 8.670834
288.050903 8.136111
631.82312 38.57143
1160.217285 5.069444
