>compound Oxiranecarboxylic acid, 2-[6-(4-chlorophenoxy)hexyl]-, ethyl ester- [CAS]
>formula C17H23ClO4
>ionization [M+H]+
>parentmass 327.136
#inchi InChI=1S/C17H23ClO4/c1-2-20-16(19)17(13-22-17)11-5-3-4-6-12-21-15-9-7-14(18)8-10-15/h7-10H,2-6,11-13H2,1H3
#inchikey DZLOHEOHWICNIL
#Ion_Source LC-ESI
#Instrument qTof
#Compound_Source Commercial
#PI Dorrestein
#Data_Collector Garg_Neha
#Scan -1
#Precursor_MZ 327.136
#ExactMass 326.128
#Charge 1
#CAS_Number N/A
#Pubmed_ID N/A
#Smiles CCOC(=O)C1(CCCCCCOc2ccc(Cl)cc2)CO1
#INCHI_AUX N/A
#Library_Class 1
#SpectrumID CCMSLIB00000079190
#IonMode Positive
#UpdateWorkflowName UPDATE-SINGLE-ANNOTATED-GOLD
#LibraryQualityString Gold
#TaskID 278b19f5865741e282cec7349aa7e7a1
##Scan# 3075
#SpectrumFile NCP003592_E2_F11_BE2_01_15736.mzXML
#LibraryName NIHcollectionI_05062014.mgf
#MQScore -1
#Organism NIHcollectionI_05062014
#TIC_Query 0
#RT_Query -1
#MZErrorPPM -1
#SharedPeaks 0
#MassDiff 0
#LibMZ -1
#SpecMZ 327.136
#SpecCharge 0
#internalFilename spec-00000.mgf

>collision 10
50.280853 188.0
52.583057 164.0
58.639439 192.0
64.742073 160.0
81.640686 200.0
82.969627 140.0
88.671707 148.0
89.466255 200.0
91.054398 204.0
95.049683 200.0
95.08461 144.0
96.084778 192.0
96.631821 228.0
97.065948 376.0
103.052567 140.0
105.067062 172.0
106.076813 144.0
107.048698 504.0
107.085175 996.0
109.063591 140.0
110.446129 184.0
111.074257 188.0
112.570923 180.0
115.01033 168.0
117.07148 180.0
118.074631 172.0
123.081696 176.0
125.09771 404.0
128.000046 148.0
129.995621 160.0
130.030121 220.0
130.316238 208.0
131.051132 148.0
132.056091 340.0
132.10817 200.0
135.080933 1704.0
136.089737 104.0
139.029755 244.0
139.083588 160.0
141.009949 204.0
143.007675 340.0
143.072632 360.0
144.083572 184.0
145.061462 164.0
145.253296 168.0
147.874817 140.0
150.768951 196.0
153.008957 256.0
153.090363 2348.0
154.093323 188.0
154.98642 108.0
155.026428 160.0
156.034164 168.0
156.449631 168.0
156.985764 156.0
158.070908 160.0
165.009735 176.0
166.014053 272.0
166.999451 128.0
167.024414 1092.0
168.031815 280.0
169.023636 628.0
170.023071 168.0
171.107117 296.0
177.857941 156.0
179.024796 268.0
181.022568 160.0
181.119141 388.0
191.027557 172.0
191.088089 144.0
192.996567 160.0
193.037628 240.0
194.044601 156.0
195.003723 356.0
199.13205 1780.0
200.135239 604.0
201.135086 148.0
208.075592 180.0
210.109833 192.0
229.118195 144.0
231.898193 164.0
235.085892 1036.0
235.121506 196.0
236.08963 348.0
237.091583 200.0
239.047668 172.0
245.070297 640.0
247.068542 112.0
253.098724 776.0
255.09491 140.0
263.081757 516.0
264.084167 172.0
265.085205 292.0
266.071991 144.0
268.108185 144.0
271.016449 184.0
281.094025 808.0
282.098267 116.0
283.090118 316.0
284.093018 140.0
285.276733 164.0
309.118256 112.0
325.22171 144.0
329.113007 164.0
329.163818 216.0
329.189117 180.0
1828.144409 208.0
1857.080811 204.0
1886.944702 156.0
1934.339844 176.0
1978.115967 172.0
