>compound MLS002154005-01!Isocarboxazid59-63-2
>formula C12H13N3O2
>ionization [M+H]+
>parentmass 232.10805310809053
#inchi InChI=1S/C12H13N3O2/c1-9-7-11(15-17-9)12(16)14-13-8-10-5-3-2-4-6-10/h2-7,13H,8H2,1H3,(H,14,16)
#inchikey XKFPYPQQHFEXRZ
#Ion_Source LC-ESI
#Instrument qTof
#Compound_Source NIH Pharmacologically Active Library
#PI Dorrestein
#Data_Collector VP/LMS
#Scan -1
#Precursor_MZ 232.106
#ExactMass 231.101
#Charge 1
#CAS_Number N/A
#Pubmed_ID N/A
#Smiles Cc1cc(no1)C(=O)NNCc2ccccc2
#INCHI_AUX N/A
#Library_Class 1
#SpectrumID CCMSLIB00000085274
#IonMode Positive
#UpdateWorkflowName UPDATE-SINGLE-ANNOTATED-GOLD
#LibraryQualityString Gold
#TaskID d252d724072548979f1f6f1ced849daf
##Scan# 1675
#SpectrumFile p3-G08_GG8_01_18301.mzXML
#LibraryName Pharm_Active_Library.mgf
#MQScore -1
#Organism Pharm_Active_Library
#TIC_Query 0
#RT_Query -1
#MZErrorPPM -1
#SharedPeaks 0
#MassDiff 0
#LibMZ -1
#SpecMZ 232.106
#SpecCharge 0
#internalFilename spec-00000.mgf

>collision 10
44.920666 144.0
45.41563 392.0
45.829723 172.0
47.712265 116.0
48.945164 148.0
50.14444 168.0
51.949051 132.0
52.436531 220.0
54.189209 156.0
54.868267 76.0
55.188675 172.0
56.475155 172.0
57.169846 256.0
57.198444 164.0
57.42749 140.0
58.266178 204.0
58.866341 172.0
59.527924 184.0
60.651176 232.0
60.851311 128.0
61.431843 176.0
61.672333 152.0
62.583855 160.0
64.393417 180.0
65.112579 180.0
67.406723 144.0
69.997818 212.0
71.389183 144.0
72.437378 88.0
72.892097 172.0
74.026558 152.0
74.75618 108.0
76.351334 164.0
76.668198 256.0
78.218361 192.0
78.306404 216.0
78.325783 144.0
78.502037 168.0
80.614693 168.0
80.641495 252.0
81.266518 116.0
82.574417 124.0
83.839905 236.0
84.731651 176.0
84.885628 156.0
84.94249 60.0
88.424416 104.0
89.163391 184.0
89.722473 188.0
90.400604 204.0
90.453598 56.0
90.946457 176.0
91.009109 256.0
91.026756 204.0
91.054207 8564.0
91.111671 36.0
91.130676 60.0
91.269432 136.0
91.313393 168.0
91.499672 64.0
92.057098 740.0
92.477089 88.0
92.614952 92.0
92.752922 108.0
92.825783 56.0
93.059372 208.0
98.577087 116.0
98.620567 76.0
105.067657 124.0
115.055702 392.0
120.078728 220.0
130.064301 176.0
131.058624 128.0
132.072296 168.0
144.079422 184.0
156.073792 132.0
157.065552 192.0
168.834595 180.0
173.561279 172.0
178.917206 232.0
198.927979 136.0
226.859787 96.0
745.335571 148.0
752.187195 148.0
771.845886 256.0
772.233032 104.0
808.586975 168.0
813.609375 116.0
832.458374 176.0
843.018127 164.0
843.781189 156.0
852.348145 172.0
854.435608 184.0
856.572144 140.0
857.03241 148.0
863.565186 76.0
867.705444 200.0
867.916504 184.0
869.87616 144.0
874.355164 52.0
886.284302 144.0
889.558228 188.0
897.966248 192.0
903.414062 80.0
912.289917 164.0
914.359192 116.0
922.200195 164.0
922.345215 184.0
925.903076 208.0
929.686218 60.0
935.484924 172.0
937.421875 160.0
946.370972 160.0
953.192139 156.0
955.479492 84.0
966.808899 212.0
972.411682 148.0
976.960388 228.0
994.771484 140.0
1005.40918 64.0
1012.37616 60.0
1013.807922 136.0
1022.999084 148.0
1033.863037 136.0
1045.569336 244.0
1048.396729 88.0
1048.480469 220.0
1053.487793 160.0
1054.974243 236.0
1055.79541 104.0
1059.290649 184.0
1061.779785 84.0
1063.83667 52.0
1067.735474 56.0
1068.067261 184.0
1068.926025 188.0
1081.136353 168.0
1088.872681 172.0
1092.994751 192.0
1099.466187 204.0
1100.865845 208.0
1105.361694 240.0
1109.792725 108.0
1112.420044 148.0
1116.865723 172.0
1117.710571 160.0
1117.956787 204.0
1121.226929 164.0
1126.79895 164.0
1141.028076 200.0
1141.814819 176.0
1143.167114 136.0
1144.405762 232.0
1144.486572 164.0
1148.584229 164.0
1172.240356 192.0
1175.74585 148.0
1183.908936 144.0
1191.791016 168.0
1208.802979 180.0
1228.605957 136.0
1229.171143 152.0
1230.595215 180.0
1233.354736 208.0
1236.236328 192.0
1242.472656 216.0
1244.73291 204.0
1248.781006 112.0
1254.731567 240.0
1255.119385 152.0
1256.643799 160.0
1261.516235 156.0
1267.1427 136.0
1278.568604 212.0
1279.800171 240.0
1281.274536 148.0
1289.545288 144.0
1291.282715 64.0
1294.804077 188.0
1298.093628 192.0
1299.714844 188.0
1299.922974 204.0
1313.377319 56.0
1313.536011 160.0
1318.503784 164.0
1321.968018 156.0
1325.400513 120.0
1330.281738 56.0
1334.175781 160.0
1335.899414 176.0
1341.543457 184.0
1344.548706 108.0
1345.709351 40.0
1346.03064 152.0
1353.826416 184.0
1354.807983 232.0
1364.525269 196.0
1367.04834 84.0
1370.450439 224.0
1403.973022 260.0
1404.069946 140.0
1420.488525 140.0
1421.876709 180.0
1428.255859 164.0
1432.456421 228.0
1439.30481 100.0
1446.737305 56.0
1456.330078 208.0
1462.770874 144.0
1462.999146 148.0
1463.456055 228.0
1468.096802 80.0
1470.378052 184.0
1473.669434 192.0
1476.237915 216.0
1484.861572 244.0
1492.410522 220.0
1494.025757 128.0
1499.863159 168.0
1503.735229 168.0
