>compound Rifabutin
>formula C46H62N4O11 
>ionization [M+H]+
>parentmass 847.446899
#inchi InChI=1S/C46H62N4O11/c1-22(2)21-50-18-16-46(17-19-50)48-34-31-32-39(54)28(8)42-33(31)43(56)45(10,61-42)59-20-15-30(58-11)25(5)41(60-29(9)51)27(7)38(53)26(6)37(52)23(3)13-12-14-24(4)44(57)47-36(40(32)55)35(34)49-46/h12-15,20,22-23,25-27,30,37-38,41,49,52-54H,16-19,21H2,1-11H3,(H,47,57)/b13-12+,20-15+,24-14-/t23-,25+,26+,27+,30-,37-,38+,41+,45-/m0/s1
#inchikey ATEBXHFBFRCZMA
#Ion_Source LC-ESI
#Instrument qTof
#Compound_Source Isolated
#PI Sirenas
#Data_Collector Ed Esquenazi 
#Scan -1
#Precursor_MZ 847.45
#ExactMass 0.0
#Charge 1
#CAS_Number N/A
#Pubmed_ID N/A
#Smiles N/A
#INCHI_AUX N/A
#Library_Class 3
#SpectrumID CCMSLIB00000005091
#IonMode Positive
#UpdateWorkflowName UPDATE-SINGLE-ANNOTATED-BRONZE
#LibraryQualityString Bronze
#TaskID d19310cd93df49b68e9fcbec27720eb5
##Scan# 6
#SpectrumFile Rifabutin.mgf
#LibraryName fda_library.mgf
#MQScore -1
#Organism fda_library
#TIC_Query 0
#RT_Query -1
#MZErrorPPM -1
#SharedPeaks 0
#MassDiff 0
#LibMZ -1
#SpecMZ 847.45
#SpecCharge 0
#internalFilename spec-00000.mgf

>collision 10
100.112938 72.044434
100.864998 4.91413
107.086586 203.751205
107.112694 1.205
107.1287 1.208333
108.524986 4.297581
108.599304 3.15
109.064079 112.052101
109.101204 97.782043
109.211525 2.840909
109.749756 6.614535
110.834915 15.56419
111.08062 68.960564
111.350555 5.12
111.535492 3.425
112.112129 1090.05603
112.155167 10.24973
112.171379 3.30625
112.179466 10.4025
112.25309 4.026471
112.298492 18.00227
112.330505 8.211843
112.345253 5.206081
112.437454 2.404545
112.467453 14.42099
112.490204 6.105818
112.544456 6.498
112.607597 2.44
112.718246 4.628572
112.751228 5.208333
113.058411 28.62237
113.165344 3.6125
114.128212 47.102329
115.071823 2.005556
121.066826 34.502281
121.098991 39.289089
121.238968 1.2
121.442062 2.88
122.22924 8.652083
122.317741 4.026471
123.078529 271.549011
123.117691 75.686218
123.347198 13.00957
123.725891 5.20625
124.263474 3.311364
125.093872 78.184303
125.399567 5.616025
125.673912 11.81737
126.128548 23.008329
127.074219 59.279549
127.099937 2.405555
127.429604 1.402273
130.119659 35.511799
130.141937 1.856818
131.082916 31.610001
133.062988 33.82563
133.099792 50.683708
133.28476 12.89605
133.577347 2.281667
134.471924 10.33136
135.078644 85.706192
135.11467 89.507179
135.380615 8.492213
135.429306 4.375
136.456558 8.456819
136.540817 2.005556
136.655121 8.853333
136.942062 5.216667
137.094315 132.427399
137.126755 8.086225
139.076859 1.5
139.113556 19.44268
139.297073 2.336111
145.097961 43.987591
147.080246 21.60025
147.115845 47.334129
147.331345 5.205
147.407349 9.620455
149.092392 19.560289
149.566544 1.866667
150.278503 8.027702
150.5009 6.387903
150.865814 2.41
151.053741 2.401471
151.075134 649.374817
151.110504 31.34321
151.126495 2.281667
151.220535 8.462069
151.281708 8.680555
151.378632 6.10431
151.444031 4.090909
151.597244 4.5125
153.08902 91.787354
153.140732 21.13176
153.983841 9.200532
155.111938 26.367399
157.082916 43.878689
158.104782 19.22736
159.076263 51.005589
159.114105 89.870987
161.097198 58.70784
162.304245 5.406428
162.476898 5.005556
163.109604 264.142914
163.191757 1.032143
163.205719 2.977941
163.294464 3.808333
163.40892 18.783819
163.431854 2.811842
163.932571 2.1
169.087769 21.09116
171.572556 7.022298
172.129288 3.248529
173.096191 35.350819
173.13208 71.034492
173.189575 1.289286
173.579376 1.96
174.160324 4.096429
175.110886 75.510422
175.145584 90.415497
175.247696 4.879348
176.085312 9.870349
177.091232 29.889469
177.130798 49.878719
177.185364 1.403571
178.446564 1.911364
179.105255 169.332199
179.314926 1.35
179.624619 16.461809
180.454636 2.711364
181.122253 23.69379
181.429108 11.20526
183.117905 33.725941
184.18071 2.645
185.111511 56.970249
185.403885 5.144048
186.273453 2.88
186.935074 1.225
188.105942 9.210593
189.085464 13.9246
190.859329 1.875
191.106079 110.909302
191.330765 8.147951
191.855637 2.025
192.114975 39.32246
192.73848 2.472059
193.118805 63.103439
193.849136 2.666667
195.133911 17.70089
199.145218 20.74
201.124619 14.66173
203.104706 16.922461
203.140854 21.870001
207.096283 9.245
209.121307 3.608333
209.214615 6.228448
209.484222 7.000532
211.14447 6.318421
213.124649 57.87854
215.105591 28.802231
217.117172 66.537697
220.160599 11.00791
225.129288 51.909439
225.160858 41.53793
227.130569 17.459311
227.181946 5.333333
229.160828 26.811211
231.136703 27.823351
235.12999 20.698311
239.148071 12.47778
239.175293 17.160999
241.155182 26.426889
249.149704 53.286621
255.135986 13.66125
255.575043 6.0025
258.156677 27.2078
259.168488 49.908329
259.729553 8.186865
261.151398 13.40906
264.145203 6.273485
267.166321 17.753639
269.188965 8.229082
270.082306 15.987
271.165436 18.732309
272.063354 3.472222
279.477631 9.363333
284.15976 30.131371
295.073181 27.09951
297.087433 47.27261
297.510956 2.636765
298.00946 10.65708
298.183411 6.003572
307.079285 51.495682
307.333313 3.257143
308.088074 3.1
308.281708 3.045
308.367218 7.618
308.540833 1.633333
309.192505 8.856333
310.093811 21.080219
311.080414 55.419521
311.159241 1.633333
312.116791 25.449591
315.933319 4.491667
320.347137 12.4959
320.500824 1.801923
321.086395 164.664795
322.328033 6.12803
322.709839 1.25
323.096039 68.374397
323.120544 24.51799
323.771393 2.232143
324.103455 34.104431
324.336273 7.925
324.391479 2.333333
324.461578 5.000806
324.483307 10.88284
325.10437 22.813009
327.470734 25.44268
331.441956 6.800807
334.922302 8.834574
335.094391 12.71844
336.096405 16.9837
336.31897 9.370455
337.108978 13.04309
337.99118 4.853333
338.110809 115.226097
339.089172 16.73019
339.134094 7.403571
339.175415 2.607143
339.484711 11.24898
340.051697 18.2533
340.08606 9.723462
340.126373 4.368182
340.320465 4.155556
340.85376 2.76
347.215668 11.12813
349.06192 4.820161
349.114624 8.128031
350.070129 5.253125
350.117615 34.653931
351.076935 19.74337
352.130066 7.418939
352.157349 1.608333
356.130005 2.064286
356.970886 10.3
357.201721 9.552382
357.233826 4.128572
360.114288 17.555559
363.136322 9.994595
364.097931 8.001667
364.127777 32.91304
366.110596 19.869261
368.162415 7.130882
375.090302 43.1968
379.149628 37.0
380.178375 17.88658
381.162781 32.195259
389.142334 8.040455
391.069672 3.375
394.168213 7.633334
399.108978 10.24959
400.127472 40.810131
404.12088 2.0
404.687561 2.8
405.205597 1.002778
406.178864 17.473049
406.263733 7.2
406.460083 8.230769
406.642456 2.410714
407.177063 19.7938
408.187988 37.22657
408.222839 3.525
414.909515 3.325
415.990875 6.85307
416.120667 30.98345
416.175446 16.801189
416.196198 10.82722
416.778687 4.104167
417.171722 20.931681
418.129639 16.101151
421.181396 23.684299
421.524628 2.16
421.615234 7.673781
422.151489 8.96886
422.187775 43.332111
423.206177 197.428604
423.295532 1.420455
423.422913 3.008333
424.205109 125.441002
424.527527 9.834322
424.931335 4.667593
425.732483 5.853333
426.145081 32.595268
426.321381 2.816667
426.472229 1.4
426.565643 7.0
427.157684 18.782141
427.363251 5.053261
428.077209 8.311171
430.028748 9.648529
430.118805 16.436689
432.155426 9.096052
432.61557 4.188462
433.156403 42.98362
434.203217 11.74569
436.118896 31.684441
440.165955 8.484483
443.156219 5.2
444.180847 17.625
444.465912 13.23269
445.155762 46.558769
445.177551 16.02273
447.171204 1.736111
447.200653 4.400581
448.173218 8.043919
448.982758 2.840909
449.192139 9.846312
449.779236 2.645
453.160797 9.827223
456.194366 16.60071
457.160217 20.782431
457.220978 5.275
458.165802 47.47163
460.153076 17.168961
462.186401 21.952431
462.798431 4.50431
465.209167 38.625
466.945129 5.988461
467.18689 7.616892
468.19162 28.670151
472.193054 11.80076
473.153717 7.816026
474.016785 3.000862
474.164337 22.25
476.170654 12.81607
476.52713 5.294737
478.199341 3.229762
478.46875 4.205
481.240448 16.12347
483.791931 5.911364
485.170746 34.202351
485.208527 4.210714
485.919586 3.032143
486.203186 4.514286
488.184235 39.14756
490.187561 12.55123
492.338196 26.050791
493.38028 3.628571
493.829163 4.061538
497.223755 23.707621
500.981171 8.157433
502.191772 18.772449
502.220551 7.240909
503.222137 17.42466
503.610352 4.753125
512.250671 17.62995
517.243591 41.273079
517.578979 6.849391
517.787109 7.023455
517.840027 4.496154
518.439453 6.067857
522.230164 33.89476
527.252319 6.003572
527.287292 1.469445
530.183533 8.028488
530.21637 12.57627
532.49884 1.625
532.827881 5.177941
534.95813 1.825
537.214233 25.591829
538.260254 15.83804
543.110046 1.80625
543.260315 28.606741
544.254761 20.48595
545.274109 33.020599
545.642456 8.938334
547.220093 8.205488
547.279175 20.446489
548.283752 25.936331
551.162231 10.54868
554.267273 33.317211
554.316589 2.232143
556.234497 23.13283
559.215515 7.600385
562.258545 35.667191
562.320557 2.314286
564.244507 12.11468
568.219238 4.25
569.39978 7.2
570.218628 4.472727
573.264221 239.451904
573.496704 4.203333
575.214355 2.906579
575.286804 49.921532
580.262451 42.590801
580.809631 1.2
583.285217 5.066667
585.766724 3.40625
587.005127 3.807759
587.282104 5.464474
588.044128 3.645
588.294006 7.557433
588.852417 4.081
589.244629 10.658
591.292908 7.134259
591.362427 4.642105
592.225647 4.8
597.273682 2.472059
598.312622 18.16818
599.316467 15.62852
601.28717 29.30859
603.30304 17.842991
603.33844 4.575
608.251038 71.404556
608.677856 9.404245
612.25647 11.70533
613.25116 24.195999
613.295837 23.444441
616.319031 6.05
619.77417 9.559782
620.260681 16.440241
621.289185 4.620454
622.765808 6.201
624.264954 4.281667
626.313477 38.427349
629.020508 1.032143
629.285339 3.313636
631.304749 144.4767
631.704956 1.44
631.940735 23.61894
632.194641 4.633108
632.695923 7.616025
633.239807 9.983511
633.319153 20.62608
633.525452 14.44261
633.647583 7.103049
634.283203 40.96637
635.303711 7.608018
635.970276 8.841666
638.296692 10.22045
639.284912 17.381321
640.347595 22.601669
642.320312 5.716667
642.563599 11.20833
643.360107 5.131522
643.513428 11.12727
645.3526 3.55
646.07312 4.156482
647.304443 15.825
650.608276 8.883955
651.337708 35.769669
652.300415 91.974716
653.433167 1.016667
654.271423 19.992901
654.446655 2.275
654.562988 3.0
655.27594 40.487499
655.411133 9.333889
656.306091 48.161781
657.307434 16.92979
659.351379 7.659314
661.300171 15.92534
665.096313 3.930882
665.305664 3.417308
665.358948 5.806081
666.068054 2.405
666.307617 29.489479
668.33313 6.722561
669.295227 2.211842
669.610229 3.401087
670.024414 3.004167
670.307739 158.073807
670.755066 7.423837
670.8396 17.02528
671.158752 8.528948
671.37323 1.6
672.333923 17.66506
674.723267 7.719231
674.761597 4.889286
675.397095 6.653333
675.790833 38.29208
676.360718 1.0
680.279541 4.875
683.292786 5.843919
683.486328 5.025
684.305298 69.751167
684.34082 13.66703
684.383301 9.434756
684.44519 2.064286
685.14386 2.5125
686.777893 6.336111
687.312317 24.71381
689.344299 16.321911
691.289062 21.381411
691.323608 19.689289
691.636841 4.235
694.319641 22.40259
695.342102 40.90205
697.299683 37.15704
697.356323 44.462528
698.292297 39.396919
699.347534 14.99211
700.17157 1.656818
701.390076 37.616089
701.545288 10.69886
702.314697 117.173897
704.796326 9.763333
709.382812 15.34555
711.364258 8.96886
711.70166 8.469828
712.325378 22.192499
712.710815 10.87647
713.326904 117.4244
713.452942 2.436765
714.297485 44.015221
714.820801 1.869444
715.694153 1.848077
715.75 2.472059
716.316711 162.466095
716.372437 5.696154
717.035095 4.266667
717.777466 1.225
719.3797 40.340691
720.066345 5.253125
725.274841 1.032143
725.847717 31.737539
727.32843 6.604546
727.384583 13.80643
728.848572 8.606428
730.330505 363.73819
730.417114 7.120833
730.563416 8.7025
730.615601 1.032143
730.68335 10.22241
730.77533 4.489285
731.006531 17.294371
731.123413 3.2375
731.377258 16.31176
731.650208 1.44
733.345032 8.812255
733.405151 3.30625
734.319397 14.283
735.324707 18.00849
737.194092 5.714286
737.345886 16.012369
737.386597 265.720001
738.450867 12.52872
738.809143 3.1
739.642273 2.805
742.323425 10.63269
744.357788 40.544621
746.334534 18.18828
747.183533 5.405556
747.330078 34.16782
750.135864 12.11996
750.340698 14.73536
750.467407 6.414535
750.799072 12.54841
750.957153 22.312201
751.213745 5.656034
751.43042 21.22842
751.515991 2.608333
751.640381 17.29442
751.738525 4.368182
753.271912 5.114189
754.389465 1.802778
754.857727 5.952381
755.030029 5.0
755.399353 1928.302002
755.557678 36.926731
755.755615 14.85301
755.794739 4.202941
755.843567 58.016842
755.890198 25.568489
755.986023 3.60147
756.132202 14.50392
756.531311 18.24077
756.599182 25.891491
756.694031 5.465322
756.856689 8.232142
756.933289 8.236818
756.97583 11.14297
757.30658 2.601316
757.374268 17.83083
757.692017 9.868519
757.776917 17.41065
757.916687 10.03636
759.175415 8.484028
759.423889 10.3674
759.584534 17.30471
762.351318 3.783696
762.390198 21.06637
763.293945 7.911364
763.551819 2.415
763.98645 2.578572
764.48822 16.52029
764.850098 9.928205
767.923889 7.688953
769.414856 141.566803
769.629761 1.603572
770.048218 7.890909
770.621643 5.3
772.382446 3.45
773.3703 116.461403
773.855469 1.425
774.985657 3.403571
776.36261 2.017308
778.243103 10.42275
779.380737 23.587009
779.415894 21.537769
781.53064 3.530882
782.883789 5.603333
783.019775 5.553846
783.716431 4.42
787.426941 214.802307
787.5672 7.373182
787.636658 3.6
787.704956 5.20577
787.958557 29.46347
788.390625 6.046154
788.574585 4.504167
788.661804 6.016667
792.32074 4.188462
792.854004 4.225
792.973877 9.157433
797.407349 237.637299
797.480408 15.44318
797.651367 1.475
798.070374 17.329981
798.15802 2.938889
798.600586 10.435
801.404419 15.1517
803.69397 1.0125
804.933655 8.606061
809.705017 9.77303
809.809204 7.788043
809.870483 7.7
809.915833 3.205
809.995728 34.664761
810.113953 6.120202
810.144531 25.95369
810.286621 27.02623
810.395447 63.819801
810.579346 1.802273
810.674194 7.960714
810.709412 20.940029
810.760376 13.64448
810.830994 10.77961
811.074768 7.876924
811.521606 1.69
811.869263 43.40918
811.966553 8.55625
812.037537 8.5
812.650696 5.032143
812.775879 3.032692
813.007812 14.80038
813.087097 3.403125
813.577942 10.27713
813.702271 4.6
814.228271 6.498
814.297791 3.081667
814.928772 7.355556
815.33136 14.47
815.421509 4942.250977
815.572632 144.835693
815.669128 27.022499
815.719177 85.91555
815.788879 148.036804
815.858215 75.312813
815.906738 51.570702
815.968445 70.706802
816.135498 8.223684
816.249695 2.6
816.63324 60.213638
816.731995 16.840349
816.827515 12.67902
816.922424 41.081539
817.363403 36.992001
817.451111 24.00931
817.559265 7.807759
817.69989 5.041
817.766113 4.423684
817.794128 3.225
818.176208 11.64286
818.490417 13.75621
818.635742 3.50625
819.319214 4.445
819.43219 26.413561
819.798767 11.90625
821.853149 10.20655
822.288879 1.6
823.896118 11.06
829.423828 57.62101
829.807861 4.218939
830.357605 9.238095
830.507507 8.988235
832.661377 6.275
838.347839 2.207143
841.675171 4.6225
841.816162 3.072059
842.30072 9.07826
843.159485 5.944047
844.483459 11.5674
844.54187 6.969
845.303833 6.915
847.446899 883.765381
847.571228 15.47803
847.660767 1.408333
847.709656 22.239491
847.813293 8.782273
847.96698 2.801667
848.101685 36.024738
848.532837 9.426471
848.643127 5.475
849.636963 8.512198
851.357666 9.104033
882.082092 5.75
900.792847 3.969
1180.529053 2.604167
