>compound BetamethazoneDipropionate
>formula C28H37FO7 
>ionization [M+H]+
>parentmass 505.258118
#inchi InChI=1S/C28H37FO7/c1-6-23(33)35-15-22(32)28(36-24(34)7-2)16(3)12-20-19-9-8-17-13-18(30)10-11-25(17,4)27(19,29)21(31)14-26(20,28)5/h10-11,13,16,19-21,31H,6-9,12,14-15H2,1-5H3/t16-,19-,20-,21-,25-,26-,27-,28-/m0/s1
#inchikey CIWBQSYVNNPZIQ
#Ion_Source LC-ESI
#Instrument qTof
#Compound_Source Isolated
#PI Sirenas
#Data_Collector Ed Esquenazi 
#Scan -1
#Precursor_MZ 505.26
#ExactMass 0.0
#Charge 1
#CAS_Number N/A
#Pubmed_ID N/A
#Smiles N/A
#INCHI_AUX N/A
#Library_Class 3
#SpectrumID CCMSLIB00000005599
#IonMode Positive
#UpdateWorkflowName UPDATE-SINGLE-ANNOTATED-BRONZE
#LibraryQualityString Bronze
#TaskID d19310cd93df49b68e9fcbec27720eb5
##Scan# 1
#SpectrumFile BetamethazoneDipropionate.mgf
#LibraryName fda_library.mgf
#MQScore -1
#Organism fda_library
#TIC_Query 0
#RT_Query -1
#MZErrorPPM -1
#SharedPeaks 0
#MassDiff 0
#LibMZ -1
#SpecMZ 505.26
#SpecCharge 0
#internalFilename spec-00000.mgf

>collision 10
105.067871 50.54977
107.085258 40.759689
109.062927 28.016029
111.078903 109.6082
115.038628 163.337296
119.084679 26.802219
132.254196 11.34722
133.10051 12.35299
133.18454 25.1047
135.284897 16.20577
137.097 83.795097
143.065643 32.345589
147.078857 80.396744
149.638916 16.004869
151.112106 100.180397
153.092514 144.544601
159.078674 59.199371
161.063446 30.396231
168.945007 13.12821
171.078354 89.926361
171.087936 18.799999
173.101852 31.979879
177.292664 18.29348
185.094742 362.816589
185.480011 16.42942
187.074219 73.525238
189.08783 29.61335
195.078003 55.133888
197.091629 24.707069
201.393753 23.348431
202.082733 20.92
203.107498 48.28376
207.132126 15.30682
209.114944 41.12793
213.124435 24.932079
221.093842 29.364691
221.119522 71.517113
223.133301 93.710777
225.067688 15.52688
225.114594 15.69467
229.083389 73.000923
229.120789 60.85714
233.097382 23.676279
237.130402 26.736839
239.104614 71.560333
239.305771 17.853809
249.129257 44.618309
251.141647 14.722
261.170349 23.707319
263.140564 88.281891
267.135529 32.049309
273.126587 17.297621
273.655396 13.9679
275.142853 104.611397
277.160217 230.186798
277.548187 13.54167
278.261078 14.04412
279.175018 1146.359009
279.249695 15.73874
279.399933 14.27868
279.591888 10.9467
279.708221 13.35376
279.789673 15.65278
280.007935 10.5
283.140228 10.16329
286.139771 23.716049
288.055817 16.5977
289.15564 69.94352
289.43808 16.00577
291.173584 490.379913
291.865082 21.5525
291.947052 24.93029
293.153015 50.523548
293.585327 15.33415
295.164581 41.43261
297.181732 95.716919
298.672668 13.12821
299.426361 16.78513
301.158356 539.927979
302.973877 11.02222
303.138184 43.002522
308.296661 14.83631
309.068878 11.02083
309.180023 216.618805
311.157043 14.44138
317.099457 12.2838
317.153656 56.803421
317.280853 15.125
317.312378 17.349211
319.167419 1172.782959
319.27121 18.46505
319.363373 11.20833
319.408173 11.67816
321.158569 19.667431
321.338501 12.49223
323.159088 19.17083
325.175262 31.22695
327.188171 54.840118
335.201416 26.960819
335.888 37.02565
336.455597 18.9
337.099518 26.950621
337.180237 1132.140991
337.373779 16.01827
337.514374 17.015551
337.674744 34.417782
338.115417 13.33333
338.231567 19.21814
352.193573 38.32877
353.042389 26.04014
353.164978 11.33422
355.190063 533.048218
355.610931 12.27403
358.190674 25.66667
365.463196 15.16495
367.189148 36.379349
367.541138 10.64015
375.195099 52.35014
375.890442 20.693451
383.214661 35.375
390.575256 21.322371
393.205292 919.856018
393.40509 14.21333
394.689514 12.05518
408.662476 11.3344
408.744324 22.755501
408.803741 23.23311
408.885193 15.81548
410.387726 10.00126
411.105591 18.53224
411.214905 2823.022949
411.305359 15.33412
411.355743 27.185369
411.435516 24.327471
411.456818 10.04412
411.477997 10.72917
411.514221 35.504311
411.64917 46.167839
411.698273 11.66667
411.78299 13.70014
412.406403 11.13889
467.252197 48.535
484.259491 12.27222
485.251526 1246.488037
485.41922 13.41336
485.680603 23.503201
485.780029 24.815331
486.072479 21.99324
486.135162 29.66707
486.884247 11.40741
487.591461 11.39583
502.537354 10.96014
502.716034 22.722219
503.075592 10.66667
504.058777 10.675
505.258118 754.109314
505.463654 14.48214
505.520874 10.0336
505.818146 11.89387
506.154663 15.59214
507.573822 15.62972
517.210999 17.93223
770.559692 21.17729
