>compound cyclo(L-Tyr-L-Pro)
>formula C14H16N2O3 
>ionization [M+H]+
>parentmass 261.123
#inchi InChI=1S/C14H16N2O3/c17-10-5-3-9(4-6-10)8-11-14(19)16-7-1-2-12(16)13(18)15-11/h3-6,11-12,17H,1-2,7-8H2,(H,15,18)/t11-,12-/m0/s1
#inchikey LSGOTAXPWMCUCK
#Ion_Source DI-ESI
#Instrument qTof
#Compound_Source Isolated
#PI Keyzers
#Data_Collector R Keyzers
#Scan -1
#Precursor_MZ 261.123
#ExactMass 260.116
#Charge 1
#CAS_Number 4549-02-4
#Pubmed_ID N/A
#Smiles N/A
#INCHI_AUX N/A
#Library_Class 3
#SpectrumID CCMSLIB00000007140
#IonMode Positive
#UpdateWorkflowName UPDATE-SINGLE-ANNOTATED-BRONZE
#LibraryQualityString Bronze
#TaskID 76b66bf1ccd04cec9993212b36387ea3
##Scan# 4
#SpectrumFile CDB02_30E_MSMS_002.mgf
#LibraryName gnps_library.mgf
#MQScore -1
#Organism test_rob_keyzers
#TIC_Query 0
#RT_Query -1
#MZErrorPPM -1
#SharedPeaks 0
#MassDiff 0
#LibMZ -1
#SpecMZ 261.123
#SpecCharge 0
#internalFilename spec-00000.mgf

>collision 10
107.048622 1564.140015
107.14756 10.5571
107.169601 10.66667
107.312309 15.56466
107.349854 11.83333
113.072426 227.080597
114.921089 18.00198
117.049561 18.031561
117.951912 38.47348
118.031494 23.67029
118.059311 15.2803
118.924919 13.00833
119.048439 293.421906
121.062462 32.934261
124.084183 34.355389
125.065598 22.375
128.044937 38.960941
130.058517 30.11204
131.800613 18.09339
132.077652 54.198582
134.060165 34.341671
134.096527 36.477558
136.075836 313.569702
139.499542 23.930559
144.44371 11.675
146.057022 14.81548
147.044724 49.429111
148.022659 30.281429
149.022278 20.815001
153.065231 80.224541
154.0737 112.731697
155.077271 59.68269
159.093811 14.66667
164.071259 18.272289
169.052979 11.1875
170.073364 14.96695
170.097168 11.06944
174.094864 12.63377
175.111374 11.50718
184.004074 15.12247
186.102432 36.436279
187.134842 32.136108
188.066635 14.96354
198.08345 25.08889
198.630173 10.60606
201.091644 33.64209
201.466278 21.013889
202.096176 14.81548
203.009827 11.67361
203.097534 12.61364
211.970612 12.90675
215.655792 11.2192
216.653 10.00219
226.192917 10.66848
230.109406 18.79594
244.949539 11.77778
245.105652 20.856979
248.931 31.586809
260.159821 15.17708
262.793579 11.66865
267.023193 12.77564
278.849213 11.45455
294.924957 11.69444
305.297577 22.039221
341.822327 19.33333
371.851288 11.00278
385.259735 26.337299
413.61264 21.8375
421.988678 10.86833
423.678345 10.58333
461.829773 10.09375
485.756012 10.76389
493.777588 14.77976
494.158081 12.0625
500.295502 18.35714
584.781555 10.46944
626.249268 14.71102
659.55658 14.35556
710.908875 16.386909
745.881775 14.92188
747.894714 11.56481
763.504089 10.7619
799.876648 12.35556
901.853088 10.76042
904.16864 14.30044
913.737671 13.84375
913.83728 20.30242
990.142517 17.33452
996.017273 10.73707
1013.778564 10.14881
1063.848877 14.29167
1097.429688 13.2608
1102.774414 10.04529
1116.558105 12.80278
1244.681152 10.03704
1248.365845 22.722219
1308.814453 10.33333
1385.559082 16.629629
1387.384766 19.00107
1388.7771 11.68889
1405.590454 14.00181
1435.73645 11.70833
1459.521729 18.83333
1519.39917 12.00694
1520.589355 12.07692
1615.78418 17.789221
1780.870728 20.816669
1789.725708 13.34091
1860.046387 90.376427
1860.408691 14.11111
1939.429199 13.44444
1941.798218 16.00181
2095.523193 20.73987
2303.42041 12.19048
2326.591064 13.69444
2393.593018 15.83333
2405.089844 16.137819
2428.765625 11.68056
2486.97168 10.98732
2508.348877 10.33712
2552.569824 11.33553
2604.419922 10.92708
2647.286621 11.71429
2659.726562 10.80167
2675.062256 11.68056
2771.391846 17.61742
2779.48584 15.3952
2814.597412 11.58974
2825.588135 16.755211
2837.522949 10.44444
