>compound MLS002207283-01!Alizarin72-48-0
>formula C14H8O4
>ionization [M+H]+
>parentmass 241.050308
#inchi InChI=1S/C14H8O4/c15-10-6-5-9-11(14(10)18)13(17)8-4-2-1-3-7(8)12(9)16/h1-6,15,18H
#inchikey RGCKGOZRHPZPFP
#Ion_Source LC-ESI
#Instrument qTof
#Compound_Source NIH Pharmacologically Active Library
#PI Dorrestein
#Data_Collector VP/LMS
#Scan -1
#Precursor_MZ 241.052
#ExactMass 240.042
#Charge 1
#CAS_Number N/A
#Pubmed_ID N/A
#Smiles Oc1ccc2C(=O)c3ccccc3C(=O)c2c1O
#INCHI_AUX N/A
#Library_Class 3
#SpectrumID CCMSLIB00000086011
#IonMode Positive
#UpdateWorkflowName UPDATE-SINGLE-ANNOTATED-BRONZE
#LibraryQualityString Bronze
#TaskID d252d724072548979f1f6f1ced849daf
##Scan# 1934
#SpectrumFile p5-B02_GB2_01_18441.mzXML
#LibraryName Pharm_Active_Library.mgf
#MQScore -1
#Organism Pharm_Active_Library
#TIC_Query 0
#RT_Query -1
#MZErrorPPM -1
#SharedPeaks 0
#MassDiff 0
#LibMZ -1
#SpecMZ 241.052
#SpecCharge 0
#internalFilename spec-00000.mgf

>collision 10
45.809402 184.0
50.869476 168.0
52.094707 164.0
53.285114 144.0
54.839188 136.0
55.86533 180.0
56.509815 140.0
58.034233 168.0
59.504856 184.0
63.563526 240.0
64.559128 140.0
65.280754 140.0
67.435364 120.0
70.407669 192.0
71.529343 144.0
73.951538 72.0
75.563934 148.0
76.699646 164.0
76.978783 152.0
79.448212 204.0
80.812904 76.0
81.727959 200.0
82.474548 172.0
83.217278 128.0
83.389847 176.0
85.721382 140.0
85.741653 176.0
92.427956 104.0
94.626007 184.0
95.530357 236.0
98.510056 180.0
100.956764 160.0
102.047562 208.0
105.032608 212.0
106.553596 212.0
107.011108 236.0
107.451218 172.0
107.713394 176.0
109.031113 192.0
110.03093 220.0
110.160408 108.0
110.953529 180.0
111.045792 96.0
111.730568 140.0
112.141182 184.0
112.324615 60.0
113.036591 172.0
113.138184 152.0
114.63131 208.0
115.052132 420.0
115.431793 112.0
115.999138 160.0
116.063461 212.0
119.034752 160.0
119.752403 128.0
121.034286 204.0
121.049614 88.0
121.7799 56.0
126.026665 128.0
126.281502 52.0
126.926453 220.0
127.000458 156.0
127.053246 120.0
128.062088 1484.0
129.070694 800.0
129.158264 40.0
129.749298 40.0
130.062332 228.0
130.364395 92.0
130.487137 92.0
131.129044 48.0
132.983902 192.0
135.011292 84.0
137.022934 292.0
137.047043 192.0
138.94313 144.0
139.055939 1728.0
139.114456 156.0
139.267075 136.0
140.059616 676.0
140.076218 196.0
141.070679 168.0
141.625717 184.0
142.068985 216.0
143.055176 144.0
143.605591 160.0
144.893997 200.0
145.186432 100.0
146.026993 172.0
149.014786 160.0
150.354034 104.0
153.02095 140.0
154.986969 172.0
155.059662 512.0
155.512695 136.0
155.599579 40.0
156.235779 72.0
157.066116 1928.0
158.065033 160.0
158.222275 68.0
158.247314 36.0
159.046997 180.0
160.060135 88.0
163.001938 108.0
163.790604 180.0
167.050125 592.0
167.886246 112.0
168.055542 340.0
169.072006 168.0
170.095764 140.0
171.045166 196.0
172.994446 64.0
181.486038 72.0
184.052933 324.0
185.031662 156.0
185.059677 900.0
186.07016 208.0
186.108017 136.0
189.082031 124.0
195.043228 688.0
196.01088 184.0
196.030396 60.0
196.116776 184.0
197.127045 300.0
198.134308 180.0
199.071106 132.0
213.05777 892.0
214.060104 376.0
214.625732 72.0
214.850296 52.0
214.9991 164.0
215.051636 140.0
215.492584 76.0
221.559113 72.0
222.781326 32.0
231.191895 52.0
240.615768 72.0
241.050308 1384.0
241.33873 124.0
242.05275 136.0
243.054672 140.0
252.215271 32.0
275.050476 104.0
289.176422 68.0
502.93277 88.0
558.140442 212.0
909.116089 32.0
923.012939 120.0
991.413269 232.0
1032.974365 52.0
1108.925659 204.0
1121.880615 240.0
1150.539673 200.0
1151.336426 144.0
1195.148315 180.0
1198.31543 192.0
1222.362427 52.0
1302.924805 76.0
1425.25415 180.0
1445.091309 84.0
1470.143555 188.0
1474.985596 176.0
1479.805054 160.0
1487.947144 172.0
1492.541626 108.0
1492.872192 192.0
1498.768555 192.0
1498.8302 104.0
1499.092163 164.0
