>compound cyclo(L-Tyr-L-Pro)
>formula C14H16N2O3 
>ionization [M+H]+
>parentmass 261.123
#inchi InChI=1S/C14H16N2O3/c17-10-5-3-9(4-6-10)8-11-14(19)16-7-1-2-12(16)13(18)15-11/h3-6,11-12,17H,1-2,7-8H2,(H,15,18)/t11-,12-/m0/s1
#inchikey LSGOTAXPWMCUCK
#Ion_Source DI-ESI
#Instrument qTof
#Compound_Source Isolated
#PI Keyzers
#Data_Collector R Keyzers
#Scan -1
#Precursor_MZ 261.123
#ExactMass 260.116
#Charge 1
#CAS_Number 4549-02-4
#Pubmed_ID N/A
#Smiles N/A
#INCHI_AUX N/A
#Library_Class 3
#SpectrumID CCMSLIB00000007138
#IonMode Positive
#UpdateWorkflowName UPDATE-SINGLE-ANNOTATED-BRONZE
#LibraryQualityString Bronze
#TaskID 76b66bf1ccd04cec9993212b36387ea3
##Scan# 2
#SpectrumFile CDB02_30E_MSMS_002.mgf
#LibraryName gnps_library.mgf
#MQScore -1
#Organism test_rob_keyzers
#TIC_Query 0
#RT_Query -1
#MZErrorPPM -1
#SharedPeaks 0
#MassDiff 0
#LibMZ -1
#SpecMZ 261.123
#SpecCharge 0
#internalFilename spec-00000.mgf

>collision 10
102.018967 53.901169
107.049286 1536.05603
107.144447 24.963051
107.963531 44.580761
109.068573 44.096661
110.600914 20.705879
111.059517 30.3344
113.070839 153.234299
115.049828 24.2124
116.02317 20.122471
119.05127 103.384598
122.059418 44.213379
123.042633 43.308559
125.033508 122.592598
125.091522 20.989941
130.059265 65.933823
132.080765 47.796299
133.093887 22.130381
134.003723 51.416672
136.07518 2526.956055
136.18335 28.18919
136.503998 18.960779
139.084488 46.013531
140.141663 23.455811
145.099609 57.365082
146.057724 110.438797
147.041977 188.713898
150.052231 19.190319
150.086197 27.52083
152.068039 17.91667
153.063751 70.670227
154.07341 404.087708
155.080521 530.349182
158.055145 48.950859
159.923767 20.54833
164.068649 28.753201
165.1138 18.65661
167.066101 27.07527
167.902359 18.559681
170.052841 33.112179
171.016708 34.375
173.519531 60.520321
178.004913 100.601799
186.083191 41.375
188.104202 187.670303
191.103287 22.78241
197.130737 50.71841
198.094528 17.09375
200.080978 63.827381
201.118134 50.416019
201.167755 19.444441
205.123276 22.00119
208.133759 31.45833
215.070786 27.340691
216.097168 71.979797
217.094193 25.01149
218.086609 24.18939
219.131744 40.219261
219.189728 28.83333
219.919754 20.430559
220.033371 27.4662
221.122574 18.173389
228.087234 30.810711
230.119247 41.869049
233.124405 213.550507
241.040421 23.29784
242.095963 90.160492
243.107315 81.897537
244.129044 31.24008
259.14856 244.0401
260.060333 31.197531
260.144897 122.057899
260.23999 50.23978
261.129791 16513.089844
261.482697 51.122391
261.587982 37.000599
261.686768 35.337299
261.712616 21.252371
261.771759 29.774229
261.844757 19.965401
261.892761 18.96286
261.961395 20.950899
262.003845 16.64789
262.078888 43.33329
262.136017 89.14286
262.403015 18.44643
262.503387 20.864771
262.715149 17.10227
263.017273 22.337959
264.250397 16.7451
273.349365 17.59259
415.865875 21.08333
429.770172 20.60088
481.895264 33.485611
494.129791 19.046881
768.451294 86.75
851.811584 26.629629
897.824463 24.445511
1796.778442 18.80303
2118.776367 20.136259
2242.715576 17.001341
2409.553711 24.170139
2508.408936 19.338539
2709.081787 17.430559
2796.584961 17.587299
