>compound MLS001056732-01!3-Isobutyl-1-methylxanthine
>formula C10H14N4O2
>ionization [M+H]+
>parentmass 223.119263
#inchi InChI=1S/C10H14N4O2/c1-6(2)4-14-8-7(11-5-12-8)9(15)13(3)10(14)16/h5-6H,4H2,1-3H3,(H,11,12)
#inchikey APIXJSLKIYYUKG
#Ion_Source LC-ESI
#Instrument qTof
#Compound_Source NIH Pharmacologically Active Library
#PI Dorrestein
#Data_Collector VP/LMS
#Scan -1
#Precursor_MZ 223.123
#ExactMass 222.112
#Charge 1
#CAS_Number N/A
#Pubmed_ID N/A
#Smiles CC(C)Cn1c(=O)n(C)c(=O)c2[nH]cnc12
#INCHI_AUX N/A
#Library_Class 1
#SpectrumID CCMSLIB00000085599
#IonMode Positive
#UpdateWorkflowName UPDATE-SINGLE-ANNOTATED-GOLD
#LibraryQualityString Gold
#TaskID d252d724072548979f1f6f1ced849daf
##Scan# 1431
#SpectrumFile p4-D03_GD3_01_18363.mzXML
#LibraryName Pharm_Active_Library.mgf
#MQScore -1
#Organism Pharm_Active_Library
#TIC_Query 0
#RT_Query -1
#MZErrorPPM -1
#SharedPeaks 0
#MassDiff 0
#LibMZ -1
#SpecMZ 223.123
#SpecCharge 0
#internalFilename spec-00000.mgf

>collision 10
45.736977 180.0
45.819118 164.0
46.167366 172.0
46.529148 184.0
47.548828 136.0
48.111809 184.0
48.234756 116.0
49.144405 148.0
49.307789 148.0
49.889492 160.0
49.948551 168.0
50.543919 176.0
51.060287 96.0
51.695129 156.0
51.911438 304.0
52.095154 180.0
52.674244 120.0
53.815742 140.0
54.187241 172.0
54.505634 148.0
56.356365 196.0
56.420631 184.0
56.562748 136.0
56.795002 156.0
58.397587 108.0
60.906166 120.0
62.189655 160.0
62.419022 220.0
63.05275 264.0
63.773888 164.0
64.820816 184.0
65.999092 208.0
66.198128 224.0
66.707581 136.0
66.774246 176.0
66.801895 200.0
67.04776 164.0
67.955299 64.0
68.506042 120.0
71.084892 244.0
71.452866 284.0
71.813354 156.0
72.245781 232.0
72.620132 204.0
72.665932 192.0
73.243927 172.0
73.480888 236.0
73.884079 232.0
74.888275 148.0
75.300484 212.0
75.516525 192.0
75.686119 184.0
75.876709 160.0
76.828003 188.0
76.95192 132.0
77.443306 64.0
77.732574 100.0
78.43959 264.0
78.935699 64.0
79.426277 128.0
79.52742 192.0
79.898804 168.0
80.010925 144.0
80.271065 140.0
80.486977 236.0
81.168724 224.0
81.38224 220.0
81.804733 240.0
82.262604 164.0
82.369148 120.0
82.435997 152.0
84.767113 192.0
84.867928 144.0
86.305962 192.0
86.442848 116.0
87.411491 180.0
87.720657 48.0
88.65519 204.0
89.952965 164.0
90.552353 124.0
91.210747 156.0
91.423759 212.0
92.63044 68.0
93.656166 192.0
94.318001 184.0
94.920364 124.0
95.925255 156.0
95.995438 184.0
96.106628 144.0
96.939621 156.0
97.614899 188.0
97.988876 120.0
98.257004 144.0
98.7192 140.0
98.881424 204.0
99.004166 176.0
100.462852 172.0
100.582817 200.0
101.952774 176.0
102.1297 92.0
102.822784 196.0
103.255135 172.0
103.911446 244.0
105.054787 144.0
105.073143 160.0
105.948151 204.0
107.102608 244.0
108.271606 120.0
109.3283 56.0
109.517761 152.0
109.72406 192.0
109.805382 204.0
109.828331 152.0
109.957687 124.0
109.976471 112.0
110.035347 17052.0
110.066681 284.0
110.10849 52.0
110.157509 160.0
110.183205 56.0
110.204094 44.0
110.278137 148.0
110.632835 120.0
110.666328 40.0
110.737534 116.0
110.758476 88.0
110.774353 76.0
111.035873 580.0
111.478096 48.0
111.526436 68.0
111.690445 80.0
111.972481 116.0
112.031456 152.0
112.046204 60.0
112.93914 108.0
112.956062 56.0
113.523674 48.0
114.177757 200.0
115.301285 200.0
116.546318 88.0
116.926941 96.0
117.454811 180.0
118.928337 136.0
121.047424 232.0
121.135025 72.0
121.854591 68.0
122.347229 120.0
123.101295 164.0
123.744736 88.0
124.054893 156.0
125.043327 120.0
125.615959 208.0
125.633804 148.0
126.062492 184.0
126.245804 164.0
131.079071 216.0
132.18428 192.0
133.832367 272.0
134.018936 100.0
134.510147 240.0
134.925964 144.0
135.027832 368.0
135.150314 220.0
136.013092 580.0
136.370117 128.0
137.00769 140.0
138.027649 104.0
138.100143 88.0
138.55426 156.0
138.999741 112.0
145.522781 152.0
145.650055 144.0
147.604584 128.0
148.091019 208.0
149.048813 140.0
151.768433 224.0
154.020004 500.0
155.06189 104.0
156.420547 252.0
156.974976 172.0
159.00499 136.0
160.877701 136.0
161.165604 192.0
161.226257 64.0
162.697891 120.0
166.327927 180.0
166.392105 88.0
166.574432 60.0
166.893112 124.0
167.056778 8856.0
167.148254 204.0
167.405167 56.0
167.50145 84.0
168.060272 996.0
168.240555 76.0
168.441986 60.0
168.496231 80.0
168.803818 44.0
168.894333 32.0
169.070267 216.0
169.116852 128.0
169.305847 48.0
172.080353 180.0
178.701324 92.0
179.06601 132.0
183.013275 152.0
195.460907 52.0
213.93988 84.0
222.94368 136.0
223.119263 284.0
255.980515 88.0
281.113892 192.0
420.349884 52.0
434.309357 52.0
482.229797 68.0
847.153381 92.0
876.147705 248.0
932.151367 212.0
939.890747 176.0
1009.346619 176.0
1013.809448 100.0
1017.297913 128.0
1018.015381 112.0
1018.332886 176.0
1025.108276 152.0
1052.1698 128.0
1060.514404 244.0
1071.991699 192.0
1090.933472 156.0
1103.003296 172.0
1110.657837 180.0
1114.62793 116.0
1135.899902 124.0
1137.341553 172.0
1149.030518 140.0
1158.115845 172.0
1161.871216 156.0
1189.969604 196.0
1193.095581 148.0
1196.397705 172.0
1207.009155 116.0
1217.583984 224.0
1218.709351 196.0
1229.684204 104.0
1235.889771 148.0
1240.2948 168.0
1243.900269 136.0
1246.702637 64.0
1251.239502 176.0
1253.45813 132.0
1256.814575 196.0
1261.822144 260.0
1264.857056 152.0
1276.634521 220.0
1284.419067 124.0
1286.167358 188.0
1292.914307 180.0
1297.548706 120.0
1301.293823 268.0
1307.993896 84.0
1309.059448 228.0
1337.236206 180.0
1344.969482 208.0
1347.715454 216.0
1360.290161 204.0
1369.113159 160.0
1372.915894 140.0
1374.096069 192.0
1383.304199 232.0
1384.303711 188.0
1389.729614 160.0
1392.245972 184.0
1396.311157 108.0
1396.4823 176.0
1402.207764 152.0
1404.474365 112.0
1408.818726 140.0
1408.930786 172.0
1409.752686 156.0
1413.476685 108.0
1419.776733 136.0
1422.282715 180.0
1423.033325 168.0
1423.258667 156.0
1427.692139 236.0
1430.950317 136.0
1432.674927 156.0
1439.697144 164.0
1445.480225 228.0
1447.266479 156.0
1451.335449 88.0
1451.699341 200.0
1456.207397 184.0
1456.655518 180.0
1466.120483 204.0
1472.070801 60.0
1477.589355 60.0
1477.78064 184.0
1478.010254 184.0
1483.762207 140.0
1486.129517 172.0
1487.459839 160.0
1488.089355 236.0
1497.001221 248.0
1502.057129 172.0
