>compound Busulfan (Myleran, Busulfex)
>formula C6H14O6S2
>ionization [M+Na]+
>parentmass 269.01178
#inchi InChI=1S/C6H14O6S2/c1-13(7,8)11-5-3-4-6-12-14(2,9)10/h3-6H2,1-2H3
#inchikey COVZYZSDYWQREU
#Ion_Source LC-ESI
#Instrument qTof
#Compound_Source Commercial
#PI Dorrestein
#Data_Collector Garg_Neha
#Scan -1
#Precursor_MZ 269.012
#ExactMass 246.023
#Charge 1
#CAS_Number 55-98-1
#Pubmed_ID N/A
#Smiles CS(OCCCCOS(C)(=O)=O)(=O)=O
#INCHI_AUX N/A
#Library_Class 1
#SpectrumID CCMSLIB00000078240
#IonMode Positive
#UpdateWorkflowName UPDATE-SINGLE-ANNOTATED-GOLD
#LibraryQualityString Gold
#TaskID 77f51c88eb8b467eb4a01dd2d0cb90d2
##Scan# 1115
#SpectrumFile Plate4_1_20_GH2_01_16503.mzXML
#LibraryName FDALibrary_2_04302014.mgf
#MQScore -1
#Organism FDALibrary_2_04302014
#TIC_Query 0
#RT_Query -1
#MZErrorPPM -1
#SharedPeaks 0
#MassDiff 0
#LibMZ -1
#SpecMZ 269.012
#SpecCharge 0
#internalFilename spec-00000.mgf

>collision 10
45.411453 176.0
48.277222 176.0
49.043594 224.0
49.53685 176.0
50.283474 160.0
50.597279 200.0
51.28624 196.0
52.392502 228.0
54.216087 160.0
56.424633 164.0
59.592514 148.0
59.693962 164.0
59.927929 192.0
63.573223 144.0
64.733742 184.0
68.757713 184.0
71.50103 164.0
72.328056 208.0
73.49559 200.0
84.942375 184.0
85.699799 140.0
86.286713 164.0
87.200577 140.0
87.393974 176.0
89.541138 148.0
90.623535 148.0
92.683266 180.0
94.704147 152.0
95.122978 152.0
95.324966 224.0
95.62056 200.0
97.588486 152.0
98.637276 200.0
102.046364 164.0
107.085205 152.0
109.098564 184.0
111.653725 204.0
111.880974 156.0
114.234207 200.0
115.61895 212.0
115.818069 200.0
116.941002 184.0
118.976921 1212.0
120.519234 172.0
120.637253 184.0
124.244553 216.0
124.50869 220.0
125.927383 148.0
130.997742 188.0
136.94133 168.0
137.41687 252.0
139.463577 180.0
139.844604 144.0
140.948288 204.0
141.563309 200.0
141.868942 220.0
151.041763 2204.0
151.884903 168.0
152.043869 364.0
152.950409 148.0
153.035004 388.0
153.059631 236.0
154.936722 180.0
155.653519 212.0
155.996368 168.0
156.217697 184.0
157.703827 200.0
158.853134 148.0
159.644302 180.0
163.008698 196.0
165.411469 172.0
171.267944 192.0
172.815994 152.0
172.95993 200.0
173.023224 3992.0
173.067261 156.0
174.028946 152.0
174.786514 160.0
175.017441 176.0
177.006882 188.0
181.030121 188.0
181.702896 176.0
184.514587 160.0
191.028229 312.0
192.068329 180.0
192.692215 156.0
194.112137 196.0
195.017166 172.0
196.509781 140.0
196.952286 1004.0
197.954865 196.0
198.948532 148.0
199.023209 192.0
202.511627 196.0
203.041611 156.0
207.96608 184.0
211.644577 192.0
211.853104 216.0
211.971893 140.0
213.033279 164.0
217.158264 180.0
222.451843 168.0
222.989471 200.0
224.063675 160.0
225.774017 156.0
226.986816 208.0
229.01355 212.0
230.001801 160.0
230.934982 368.0
231.255692 152.0
232.981064 168.0
239.078049 156.0
241.203094 236.0
242.952698 140.0
245.097977 192.0
245.138474 228.0
248.931259 132.0
248.973801 160.0
249.146545 204.0
251.208511 152.0
255.634705 224.0
265.017609 208.0
267.355591 228.0
267.954712 208.0
267.99707 144.0
268.382904 140.0
268.881073 140.0
268.906891 152.0
269.01178 28104.0
269.16806 180.0
269.407593 116.0
269.516876 192.0
269.569824 148.0
269.968658 216.0
270.012115 1308.0
270.104065 100.0
270.270386 152.0
271.008362 1984.0
271.153748 224.0
271.720154 132.0
271.847961 120.0
272.001251 116.0
272.118164 152.0
334.023743 152.0
379.828796 148.0
1489.926758 140.0
1579.291016 208.0
1813.735718 184.0
1826.744507 180.0
1850.477661 180.0
1890.563721 156.0
1933.082764 152.0
1952.241211 260.0
