>compound Albendazole
>formula C12H15N3O2S 
>ionization [M+H]+
>parentmass 266.096
#inchi InChI=1S/C12H15N3O2S/c1-3-6-18-8-4-5-9-10(7-8)14-11(13-9)15-12(16)17-2/h4-5,7H,3,6H2,1-2H3,(H2,13,14,15,16)
#inchikey HXHWSAZORRCQMX
#Ion_Source LC-ESI
#Instrument qTof
#Compound_Source Isolated
#PI Sirenas
#Data_Collector Ed Esquenazi 
#Scan -1
#Precursor_MZ 266.096
#ExactMass 0.0
#Charge 1
#CAS_Number N/A
#Pubmed_ID N/A
#Smiles N/A
#INCHI_AUX N/A
#Library_Class 3
#SpectrumID CCMSLIB00000005722
#IonMode Positive
#UpdateWorkflowName UPDATE-SINGLE-ANNOTATED-BRONZE
#LibraryQualityString Bronze
#TaskID d19310cd93df49b68e9fcbec27720eb5
##Scan# 3
#SpectrumFile Albendazole.mgf
#LibraryName fda_library.mgf
#MQScore -1
#Organism fda_library
#TIC_Query 0
#RT_Query -1
#MZErrorPPM -1
#SharedPeaks 0
#MassDiff 0
#LibMZ -1
#SpecMZ 266.096
#SpecCharge 0
#internalFilename spec-00000.mgf

>collision 10
103.0298 63.5
103.04055 276.075592
104.037033 697.799927
106.065857 81.950447
119.046669 1436.046021
120.996941 474.501312
122.004204 319.277191
123.012772 247.208694
130.041504 222.435806
131.046997 1718.030029
133.062698 150.958496
134.070801 107.520203
136.00827 2061.197998
138.02594 115.996696
139.029663 95.963913
147.041183 637.392212
148.006912 110.844704
148.086563 58.932129
149.017288 190.983795
150.023956 234.053299
158.034668 315.680695
158.243164 84.97998
159.023117 150.445007
159.042389 22966.349609
159.097931 129.200699
159.129974 64.154999
159.213821 69.409554
159.29126 61.237061
159.364853 88.239388
159.420959 75.104843
159.651062 62.08147
160.319046 66.571281
162.008224 97.497307
163.018829 4016.860107
163.99765 102.575104
164.026459 2124.675049
177.034073 179.189407
178.042862 129.299896
179.048798 241.9077
186.064835 96.392723
189.922531 121.7883
190.007629 192.904404
190.192795 81.145554
190.241699 77.745621
190.982239 110.063599
191.014725 56465.960938
191.262665 161.525497
191.310028 111.9561
191.355545 121.124496
191.380875 118.412201
191.396088 141.042801
191.448257 110.227303
191.463211 76.83445
191.498688 125.979599
191.559555 65.616547
191.598587 116.030899
191.911041 70.609894
192.074844 154.119598
192.557495 68.155701
204.021133 422.293091
205.028946 319.584412
234.029892 58.294449
234.069092 4475.64502
