>compound MLS002473312-01!
>formula C10H12O4
>ionization [M+H]+
>parentmass 197.081
#inchi InChI=1S/C10H12O4/c1-12-8-5-10(14-3)9(13-2)4-7(8)6-11/h4-6H,1-3H3
#inchikey IAJBQAYHSQIQRE
#Ion_Source LC-ESI
#Instrument qTof
#Compound_Source NIH Natural Product Library
#PI Dorrestein
#Data_Collector VVP/LMS
#Scan -1
#Precursor_MZ 197.081
#ExactMass 196.074
#Charge 1
#CAS_Number N/A
#Pubmed_ID N/A
#Smiles COc1cc(OC)c(C=O)cc1OC
#INCHI_AUX N/A
#Library_Class 1
#SpectrumID CCMSLIB00000080202
#IonMode Positive
#UpdateWorkflowName UPDATE-SINGLE-ANNOTATED-GOLD
#LibraryQualityString Gold
#TaskID b1d8e8f6646f4e71acdff9ca3d919d08
##Scan# 1704
#SpectrumFile p2-E05_GE5_01_18029.mzXML
#LibraryName NIH_Natural_Products_Library.mgf
#MQScore -1
#Organism NIH_Natural_Products_Library
#TIC_Query 0
#RT_Query -1
#MZErrorPPM -1
#SharedPeaks 0
#MassDiff 0
#LibMZ -1
#SpecMZ 197.081
#SpecCharge 0
#internalFilename spec-00000.mgf

>collision 10
94.976143 224.0
95.049438 1576.0
95.218758 160.0
95.560883 88.0
95.788658 188.0
95.850998 120.0
95.913368 28.0
96.021851 624.0
96.054619 860.0
96.135704 52.0
96.512711 116.0
96.996269 100.0
97.027245 572.0
97.061172 192.0
97.108032 108.0
97.145302 64.0
97.160995 104.0
97.219864 80.0
97.532143 140.0
97.886269 136.0
97.998543 228.0
98.154259 140.0
98.187782 184.0
98.517418 116.0
98.985405 208.0
99.329041 172.0
99.378632 144.0
99.938942 184.0
99.990685 160.0
100.060349 152.0
100.854301 176.0
101.767815 172.0
101.99482 60.0
102.280449 160.0
102.885208 140.0
103.111435 124.0
103.925491 176.0
104.037117 268.0
105.044441 180.0
105.330215 96.0
105.93367 72.0
106.041214 148.0
106.204239 144.0
107.012344 660.0
107.047501 332.0
107.461174 144.0
107.96933 160.0
107.98587 188.0
108.02018 252.0
108.055504 392.0
108.327408 52.0
108.609314 136.0
108.953911 256.0
108.989227 44.0
109.028557 1412.0
109.063911 1580.0
109.380211 172.0
109.415604 164.0
109.832382 80.0
110.036118 980.0
110.069908 364.0
110.756264 204.0
110.796066 172.0
110.881981 144.0
110.927376 208.0
110.965828 56.0
111.006538 152.0
111.044136 5788.0
111.125229 52.0
111.223862 92.0
111.55365 128.0
111.994659 192.0
112.01239 212.0
112.047363 332.0
112.185188 128.0
112.38343 192.0
112.448853 60.0
112.689583 152.0
112.778336 96.0
112.824844 120.0
112.871361 132.0
112.994034 140.0
113.042702 208.0
113.307373 112.0
114.081978 184.0
114.098991 228.0
114.307434 200.0
114.5821 100.0
115.275551 184.0
115.401665 108.0
116.142632 152.0
116.496819 136.0
116.580612 128.0
117.019417 124.0
117.38356 144.0
117.802269 260.0
117.903824 72.0
118.115517 220.0
118.273666 76.0
119.19973 124.0
119.954956 196.0
120.022537 164.0
120.06179 184.0
120.79129 76.0
120.940086 184.0
121.001381 156.0
121.030365 720.0
121.29493 172.0
121.411133 48.0
121.971008 92.0
122.039635 344.0
122.578438 196.0
122.631493 108.0
122.712898 148.0
122.960083 136.0
123.010719 252.0
123.044075 10452.0
123.092407 52.0
123.249245 132.0
123.305504 156.0
123.370796 112.0
123.946243 52.0
124.010391 212.0
124.04953 1832.0
124.139099 76.0
124.223381 48.0
124.598557 92.0
124.620773 100.0
124.992104 128.0
125.021027 136.0
125.036606 144.0
125.05896 2096.0
125.410782 68.0
125.682854 68.0
126.02224 136.0
126.065018 560.0
126.151863 52.0
127.114944 204.0
128.478424 156.0
130.014801 184.0
130.275925 120.0
130.926437 264.0
132.140808 64.0
134.005112 204.0
134.972229 208.0
135.007751 220.0
135.045334 452.0
135.826813 180.0
135.901047 72.0
136.04657 176.0
136.993744 148.0
137.024567 832.0
137.059464 232.0
137.083771 100.0
137.672485 52.0
137.992599 120.0
138.031784 344.0
138.066833 4760.0
138.156311 64.0
138.385452 208.0
138.484024 44.0
138.730057 192.0
138.762878 156.0
138.946228 164.0
138.960175 188.0
139.001907 164.0
139.038818 7316.0
139.070938 804.0
139.112442 120.0
139.357864 72.0
139.462433 76.0
139.648178 48.0
139.666992 64.0
139.695221 64.0
139.749344 36.0
139.798752 48.0
139.958817 212.0
140.044556 508.0
140.081146 132.0
140.307526 44.0
140.699142 88.0
140.774704 52.0
140.956589 160.0
141.046402 284.0
141.098404 100.0
141.313629 104.0
142.24736 84.0
144.124069 152.0
144.791473 72.0
147.382294 180.0
147.532135 96.0
148.284943 68.0
148.580765 140.0
149.018616 204.0
149.827942 104.0
150.889572 64.0
151.042068 188.0
151.077881 172.0
152.016296 220.0
152.046463 164.0
153.055237 612.0
153.085632 164.0
153.509491 176.0
154.006683 200.0
154.061493 2164.0
154.67067 72.0
155.032272 144.0
155.065445 584.0
155.635056 36.0
156.485397 120.0
156.960953 140.0
157.970306 132.0
161.216309 160.0
165.019028 112.0
165.057373 184.0
166.890717 116.0
166.944717 124.0
166.991013 184.0
167.034409 4300.0
167.071381 856.0
167.09906 68.0
167.304947 184.0
167.603699 88.0
168.037582 768.0
168.07428 144.0
169.084854 1252.0
169.171402 44.0
170.094238 132.0
171.921341 68.0
174.970856 116.0
175.014526 152.0
177.662781 192.0
181.04747 224.0
182.05661 488.0
183.024307 156.0
189.099976 104.0
191.681442 64.0
221.549576 84.0
268.775818 100.0
298.78299 112.0
369.045349 76.0
378.197418 76.0
610.762146 52.0
657.467285 20.0
668.77594 188.0
788.657654 164.0
790.950928 36.0
857.545776 184.0
861.595398 80.0
866.703064 224.0
868.027771 172.0
873.342651 180.0
876.421509 200.0
887.877563 172.0
890.536377 188.0
894.936951 164.0
904.249268 268.0
904.733643 216.0
908.443542 148.0
913.555664 76.0
915.102356 176.0
922.559082 152.0
940.496887 140.0
979.860107 44.0
982.528381 172.0
982.852844 196.0
987.894653 172.0
990.085327 152.0
999.331482 208.0
1000.395081 212.0
1011.017639 220.0
1011.353088 208.0
1011.865845 148.0
1017.044861 160.0
1026.224487 184.0
1028.489136 64.0
1039.888306 60.0
1044.057861 172.0
1054.883301 108.0
1058.597046 220.0
1059.21228 180.0
1069.224121 96.0
1069.666626 152.0
1079.747192 120.0
1080.859253 168.0
1095.691162 176.0
1096.303833 184.0
1103.505249 180.0
1105.913086 188.0
1127.56189 208.0
1134.342041 176.0
1136.293579 156.0
1140.557739 100.0
1145.93457 280.0
1147.855591 120.0
1148.516479 204.0
1159.767578 152.0
1159.923462 148.0
1170.08606 92.0
1175.900513 180.0
1177.532227 156.0
1179.90332 156.0
1181.811401 200.0
1187.579468 88.0
1190.949463 168.0
1191.059326 100.0
1196.712158 160.0
1198.544312 172.0
1199.260986 252.0
1204.359863 212.0
1204.857178 156.0
1206.902954 172.0
1207.207275 192.0
1210.785034 48.0
1212.489258 124.0
1218.720581 200.0
1228.181274 188.0
1230.22583 152.0
1230.79834 140.0
1235.327026 160.0
1235.508911 188.0
1236.047729 188.0
1238.315796 184.0
1238.41394 124.0
1239.997314 132.0
1243.939209 152.0
1247.634155 112.0
1254.793945 144.0
1255.971558 152.0
1258.971069 116.0
1260.793701 200.0
1261.926392 84.0
1266.460693 144.0
1274.817993 188.0
1275.386597 176.0
1276.125854 124.0
1277.882568 48.0
1280.060669 124.0
1291.250244 168.0
1298.455078 168.0
1298.619995 140.0
1298.741943 88.0
1299.387573 140.0
1301.152954 168.0
1302.80481 180.0
1306.974609 144.0
1308.435669 64.0
1314.338501 224.0
1314.901367 148.0
1315.854248 152.0
1316.85791 216.0
1328.750977 132.0
1331.088135 188.0
1331.894287 216.0
1332.046753 164.0
1333.703491 204.0
1335.43396 52.0
1335.601196 168.0
1337.704102 176.0
1338.992798 140.0
1339.145752 168.0
1339.575562 152.0
1340.872437 68.0
1342.10437 288.0
1342.468872 184.0
1345.745239 100.0
1348.15564 144.0
1353.231934 144.0
1356.785156 200.0
1357.173828 92.0
1358.963379 168.0
1360.159546 176.0
1361.25354 40.0
1362.33313 128.0
1363.582275 196.0
1364.449585 52.0
1364.920166 180.0
1365.015747 204.0
1369.475464 132.0
1370.418335 152.0
1372.25354 40.0
1372.688599 140.0
1377.212524 176.0
1377.544922 172.0
1381.055908 120.0
1383.712524 80.0
1385.460205 148.0
1385.726929 156.0
1386.994141 136.0
1387.854126 104.0
1388.98877 188.0
1391.237183 132.0
1397.465088 148.0
1398.127319 108.0
1402.700317 172.0
1404.922485 176.0
1405.049316 140.0
1407.960327 180.0
1409.073364 112.0
1416.90625 184.0
1418.270142 108.0
1421.734985 176.0
1425.15918 132.0
1426.985474 224.0
1428.971069 192.0
1430.031982 200.0
1432.592163 176.0
1440.490112 176.0
1440.603394 160.0
1448.894531 64.0
1451.092407 184.0
1451.661011 200.0
1456.146118 184.0
1459.504883 184.0
1461.41394 188.0
1463.705078 164.0
1466.638062 160.0
1467.674805 140.0
1468.422119 200.0
1470.825562 152.0
1471.314087 248.0
1473.918457 112.0
1481.400757 164.0
1485.271729 188.0
1489.639404 220.0
1490.561279 212.0
1496.037354 104.0
1496.568481 264.0
1500.135498 64.0
1501.106934 156.0
1502.981323 168.0
