>compound 8-Oxoerythraline_epoxide
>formula C18H17NO5
>ionization [M+H]+
>parentmass 328.1179490960905
#inchi InChI=1S/C18H17NO5/c1-21-14-7-18-10-5-13-12(22-8-23-13)4-9(10)2-3-19(18)15(20)6-11(18)16-17(14)24-16/h4-6,14,16-17H,2-3,7-8H2,1H3
#inchikey WQOZASFQHLTUGJ
#Ion_Source DI-ESI
#Instrument qTof
#Compound_Source Isolated
#PI Norberto Lopes
#Data_Collector Denise Silva
#Scan -1
#Precursor_MZ 296.1
#ExactMass 327.111
#Charge 1
#CAS_Number 252209-69-1
#Pubmed_ID  
#Smiles O=C1C=C2C3C(O3)C(OC)CC42C5=CC6=C(OCO6)C=C5CCN41
#INCHI_AUX  
#Library_Class 3
#SpectrumID CCMSLIB00000081225
#IonMode Positive
#UpdateWorkflowName UPDATE-SINGLE-ANNOTATED-BRONZE
#LibraryQualityString Bronze
#TaskID 01b89f375a2f46749da4b6e48417848a
##Scan# 1
#SpectrumFile gnps_8-Oxoerythraline_epoxide_pos_MplusHminusCH3OH.mgf
#LibraryName gnps_library.mgf
#MQScore -1
#Organism gnps_library
#TIC_Query 0
#RT_Query -1
#MZErrorPPM -1
#SharedPeaks 0
#MassDiff 0
#LibMZ -1
#SpecMZ 296.1
#SpecCharge 0
#internalFilename spec-00000.mgf

>collision 10
91.067001 26109.0
92.888 14049.0
94.949997 3423.0
105.013 112404.0
105.013 112404.0
107.010002 7719.0
118.998001 38330.0
120.973999 34965.0
120.973999 34965.0
131.014008 6996.0
134.975006 12323.0
143.977997 7274.0
146.020004 4490.0
146.987 15527.0
146.987 15527.0
149.035995 147171.0
149.035995 147171.0
150.009003 8544.0
158.949997 4351.0
159.917007 6875.0
162.020004 5428.0
165.009003 5041.0
166.888 2895.0
167.042999 4664.0
174.029999 54517.0
174.029999 54517.0
176.024002 192422.0
176.024002 192422.0
180.966995 4696.0
189.981003 4838.0
192.091003 6489.0
195.041 33601.0
195.041 33601.0
201.917007 3676.0
204.018005 7089.0
209.106003 5291.0
210.011993 23203.0
210.011993 23203.0
220.072006 3676.0
222.042999 5732.0
223.005005 78130.0
223.005005 78130.0
226.044006 5975.0
227.007996 3696.0
228.024994 155116.0
228.024994 155116.0
235.070999 7436.0
236.074997 6576.0
236.936005 3536.0
238.044998 139125.0
238.044998 139125.0
239.261993 7261.0
239.807999 9117.0
240.052002 167961.0
240.052002 167961.0
248.949997 4092.0
250.072006 74906.0
250.072006 74906.0
253.054001 61350.0
253.054001 61350.0
253.449997 4681.0
263.165009 3343.0
264.050995 27834.0
264.050995 27834.0
266.049988 113198.0
266.049988 113198.0
268.059998 1057367.0
268.059998 1057367.0
273.036987 10754.0
276.981995 7104.0
278.048004 520783.0
278.048004 520783.0
281.071014 27523.0
294.075989 16174.0
295.062012 35504.0
296.057007 290731.0
