>compound Rifapentine
>formula C47H64N4O12 
>ionization [M+H]+
>parentmass 877.459595
#inchi InChI=1S/C47H64N4O12/c1-24-13-12-14-25(2)46(59)49-37-32(23-48-51-20-18-50(19-21-51)31-15-10-11-16-31)41(56)34-35(42(37)57)40(55)29(6)44-36(34)45(58)47(8,63-44)61-22-17-33(60-9)26(3)43(62-30(7)52)28(5)39(54)27(4)38(24)53/h12-14,17,22-24,26-28,31,33,38-39,43,48,53-55,57H,10-11,15-16,18-21H2,1-9H3,(H,49,59)/b13-12+,22-17+,25-14-,32-23+/t24-,26+,27+,28+,33-,38-,39+,43+,47-/m0/s1
#inchikey RISDZDVHYCURHD
#Ion_Source LC-ESI
#Instrument qTof
#Compound_Source Isolated
#PI Sirenas
#Data_Collector Ed Esquenazi 
#Scan -1
#Precursor_MZ 877.46
#ExactMass 0.0
#Charge 1
#CAS_Number N/A
#Pubmed_ID N/A
#Smiles N/A
#INCHI_AUX N/A
#Library_Class 3
#SpectrumID CCMSLIB00000004848
#IonMode Positive
#UpdateWorkflowName UPDATE-SINGLE-ANNOTATED-BRONZE
#LibraryQualityString Bronze
#TaskID d19310cd93df49b68e9fcbec27720eb5
##Scan# 5
#SpectrumFile Rifapentine.mgf
#LibraryName fda_library.mgf
#MQScore -1
#Organism fda_library
#TIC_Query 0
#RT_Query -1
#MZErrorPPM -1
#SharedPeaks 0
#MassDiff 0
#LibMZ -1
#SpecMZ 877.46
#SpecCharge 0
#internalFilename spec-00000.mgf

>collision 10
100.086441 40.888889
103.051338 20.032631
104.060684 41.129261
105.068764 584.601501
106.454391 14.135
106.465858 13.34409
106.656189 11.53846
107.005074 12.81333
107.085091 4410.672852
107.127525 21.989981
107.14537 12.68269
107.174179 11.8642
107.22361 44.711811
107.267815 25.667271
107.289169 11.04529
107.30748 10.0
107.39711 89.200684
107.419312 14.90278
107.545464 13.85057
107.585472 12.20427
108.054558 46.709759
108.706573 96.538162
108.953468 27.707661
109.064354 1346.119995
109.101051 1253.046997
109.211601 40.812641
109.284485 21.139931
109.326424 9.926282
109.342796 33.961571
109.433289 10.00167
109.517029 13.4064
109.634506 16.818939
109.728905 12.15789
109.896568 16.5
111.043144 81.25457
111.080261 701.42157
111.171837 11.95833
111.260513 12.66667
111.8153 9.693376
112.11042 26.952089
113.059052 381.456909
113.094521 94.499313
114.026169 11.87879
115.037109 32.727619
115.054153 144.450104
115.075333 61.734409
116.592354 12.49223
117.068192 47.58559
118.557968 43.80278
119.084213 780.634521
119.195656 10.37255
119.221489 10.07849
119.315308 23.002781
120.386971 27.722071
120.577263 16.355391
121.063713 809.650085
121.100098 1262.574951
121.242081 21.003969
121.500008 12.5744
121.707504 28.799999
122.230606 16.64015
122.432953 14.08877
122.445564 16.61458
122.988564 11.48457
123.043671 60.646259
123.080093 4467.714844
123.117821 504.087585
123.17382 10.68
123.224258 24.884899
123.238548 16.926279
123.298203 15.50417
123.413315 10.33426
123.440392 16.518591
123.471298 16.875
123.757706 10.47115
124.571663 12.07843
124.967949 13.34843
125.059441 144.523895
125.095161 2195.7771
125.261154 14.6299
125.306564 20.057871
125.458359 17.42178
125.51091 20.0119
125.636345 13.05357
125.929688 12.12121
126.454056 18.355391
126.967026 15.675
127.109177 129.952698
127.300919 18.073071
129.091782 58.757568
129.320465 37.041672
129.414124 41.851849
130.07724 102.280296
131.085052 105.526901
133.062729 85.74942
133.100937 1024.275024
133.133438 10.40167
133.425644 13.85195
133.453842 14.22222
133.710464 17.680189
134.512192 10.66768
134.527725 11.04167
135.07988 1664.291992
135.116653 916.008484
135.193542 23.037121
135.289261 19.79431
135.397522 21.765949
136.297409 10.10289
136.348511 17.375
136.488251 16.40221
136.55748 13.01667
136.678848 15.30876
136.744934 22.828279
137.017242 11.19947
137.058929 326.311401
137.095444 2863.01001
137.131729 650.911926
137.190109 25.77664
137.225342 12.48333
137.265762 10.14982
137.441101 17.988171
137.45755 35.377171
137.534897 17.847891
137.619476 21.864799
138.235657 18.810711
138.352493 11.74833
138.39328 23.67864
138.511719 12.33412
139.074661 1228.427979
139.660904 12.64015
140.073257 11.85965
141.052704 37.17775
141.064957 11.96354
141.09024 172.2966
142.077118 113.633797
143.085663 87.799957
143.281509 23.36628
145.060669 11.14682
145.068512 10.06818
145.102005 1230.779053
145.135941 12.03582
145.207184 9.334876
145.223511 13.40895
145.249115 15.00089
145.345566 15.97711
145.411469 25.711109
146.108902 13.375
146.516159 13.46558
147.079498 105.437401
147.116165 1542.94104
147.298294 17.197399
147.327713 12.82036
147.357269 13.06944
147.462479 22.04537
147.492447 10.50347
147.712219 11.04003
147.894089 11.48457
149.059052 243.745102
149.096283 376.905701
149.130768 1866.824951
149.165833 9.748334
149.38855 11.88889
149.608444 13.59559
150.022629 9.856884
150.14035 20.000931
150.183212 12.24242
150.209534 9.916667
150.217361 11.85049
150.232697 31.70759
150.312317 12.70833
150.375259 9.854167
150.388016 29.67061
150.400864 25.039709
150.419174 14.97663
150.519913 20.524469
150.703949 10.41667
150.715469 23.06349
150.820297 14.22348
150.938812 12.39844
150.989807 28.5865
151.075073 15474.639648
151.175064 38.890079
151.212204 26.63439
151.22052 18.569441
151.246765 14.70238
151.255264 10.11574
151.265198 19.045401
151.284973 12.11638
151.299896 28.03838
151.320816 33.63559
151.331665 37.91008
151.354294 38.632599
151.382217 21.94953
151.426437 42.202721
151.450668 32.096931
151.491013 28.25532
151.516815 17.108049
151.543091 42.504169
151.552032 13.34722
151.573212 54.42643
151.591522 11.8848
151.613113 13.14969
151.644836 10.02222
151.658554 16.674999
151.687424 11.39103
151.697388 59.861038
151.812073 23.165291
151.880753 12.03947
152.129425 258.491394
152.254379 12.39706
152.37645 15.36111
153.070511 29.336309
153.09079 2956.397949
153.138931 712.371521
153.173813 42.341412
153.454483 21.674999
153.596054 16.337851
153.712479 12.19133
153.881485 16.5977
154.282364 15.57209
154.390106 23.36915
154.428558 10.25
154.550369 10.17754
154.588699 20.183821
155.077377 105.480103
155.106522 1362.017944
155.153824 5162.150879
155.208527 10.17647
155.249008 59.504662
155.308197 13.70679
155.34552 16.57407
155.38678 23.013889
155.529343 17.66667
155.559753 16.694441
155.598831 23.9195
155.646515 24.67857
155.721298 18.67901
155.778702 24.526791
155.798309 26.025841
155.902084 10.02885
155.915344 18.385559
156.050415 16.875
156.094284 46.124378
156.15744 107.156097
156.71167 13.33948
156.919724 13.25
157.118317 54.840271
157.736786 16.007071
159.078354 90.259407
159.11673 1549.170044
159.458694 34.588379
159.677078 29.85507
160.656052 20.37089
161.095291 2122.725098
161.128891 200.395706
161.149963 12.66667
161.250488 12.23184
161.272583 20.41667
161.357178 16.93667
161.644669 12.89352
162.029617 17.019739
162.198318 10.70379
162.207184 16.872721
162.224899 14.55784
162.257782 13.44004
162.274963 15.675
162.318054 20.046511
162.352539 11.16071
162.410629 11.3344
162.681625 11.52778
162.761108 18.453329
162.855194 12.02679
162.997391 16.83675
163.036774 13.37045
163.074387 230.1642
163.111267 7154.124023
163.165955 50.03883
163.183395 10.71011
163.234695 42.04425
163.263931 18.592951
163.298737 18.44022
163.354675 41.725471
163.614761 13.35753
163.743149 22.507851
163.788345 12.68561
163.847885 37.650211
164.136017 11.66987
164.283752 34.791672
164.313263 34.625
164.443527 10.26667
164.492569 13.32237
164.715302 17.4
164.954681 27.64035
165.002121 11.86404
165.090683 64.554558
165.126755 1707.496948
165.49353 14.50538
165.725098 15.2192
165.735748 22.48214
165.942352 22.456869
166.550323 13.48522
166.816422 17.30769
167.067047 51.465881
167.10405 71.761017
167.141556 170.028793
167.774841 14.33333
168.14682 106.730301
169.085022 150.043793
169.101608 110.547699
169.433273 16.83675
170.062805 21.453899
170.109024 63.1702
170.165527 135.727402
171.079391 91.702423
171.098557 33.34074
171.115341 285.375885
171.313187 13.34167
171.686172 14.7904
171.992279 19.42691
172.183395 11.48457
172.370422 12.96037
172.445343 26.96377
172.841507 38.412922
172.946579 14.5
173.095703 1459.281982
173.132355 1203.207031
173.175415 9.396825
173.271667 11.62703
173.381561 13.40351
173.505188 11.37931
173.523529 12.00298
173.545059 24.628201
173.596939 11.77174
173.782043 14.28571
173.899506 10.45333
174.166611 13.32328
174.244125 13.34722
174.712463 15.66737
175.072647 104.395401
175.111359 1477.04895
175.14769 251.305206
175.17775 49.136261
175.228439 14.82315
175.246292 15.66892
175.481232 22.69136
175.902267 12.86786
175.919312 9.339286
176.136246 14.5
176.284454 16.53289
176.314224 14.75556
176.404129 11.52778
177.089798 815.281921
177.126373 1181.327026
177.167892 15.02885
177.195145 25.680559
177.644638 9.960366
177.779251 32.377991
178.22937 11.86111
178.252563 12.67619
178.439972 14.56061
179.016174 18.633471
179.106003 8134.412109
179.163101 38.046951
179.189697 10.75
179.223785 26.47414
179.238617 17.66954
179.290482 35.44524
179.314713 10.1875
179.330597 15.83333
179.34697 34.693279
179.383179 15.75725
179.42366 20.052349
179.435852 26.259331
179.494034 12.43056
179.632477 46.656799
179.765396 23.165291
179.811935 17.33396
179.912918 12.22917
180.003281 27.112499
180.064011 25.667179
180.091949 14.0
180.194672 12.0049
180.723358 24.776899
181.121719 742.246704
181.157974 12.01852
182.109192 15.08333
182.499603 10.20833
183.13591 566.466919
183.206451 12.9375
183.341827 13.34041
184.12085 27.71627
184.56926 19.225941
185.096313 119.7267
185.132385 394.487488
185.210358 11.25
186.78685 14.04688
187.054382 10.64015
187.110321 341.446899
187.144897 198.939102
187.454285 10.68314
187.506683 15.65878
189.091278 567.206482
189.124207 212.0289
189.161179 47.65041
189.219833 12.04167
189.329941 12.01852
189.377838 21.062241
189.986313 13.25962
190.11055 22.37281
190.125839 83.375763
190.278931 18.029631
190.297226 19.218941
191.072083 12.04167
191.106125 5273.00293
191.141785 190.383102
191.191757 9.682971
191.273209 15.12927
191.307266 17.341669
191.33931 23.63516
191.354202 53.161831
191.374969 73.856857
191.436829 17.53846
191.473038 14.01293
191.491821 11.57407
192.188828 11.76179
192.256058 15.48148
192.561569 16.447531
193.083801 98.295853
193.121826 1265.171021
193.168411 31.841181
193.180176 24.518579
193.277756 27.76923
193.300018 14.86111
193.338318 12.81667
193.371765 16.61458
193.41095 9.757883
193.444824 14.74107
193.542709 9.746795
193.719055 11.075
193.803543 13.04348
194.47197 10.66764
195.136688 214.003494
195.187683 15.04167
195.681854 12.68003
196.124527 85.095161
196.358475 47.108841
196.43338 30.70084
197.115662 31.18943
197.130676 118.823303
197.152328 17.26667
197.882721 85.153687
198.137955 190.466904
199.11084 236.122406
199.146591 361.087494
199.508179 36.335709
200.154312 268.894196
200.524368 16.103451
201.065018 33.296379
201.127396 1467.636963
201.820908 12.10714
201.895966 11.57353
202.455231 11.34444
203.10376 287.28891
203.141861 1182.905029
203.537582 12.74167
203.892746 12.37862
204.912781 16.151239
205.087936 24.01145
205.12149 199.867096
205.157837 44.555569
205.303574 29.975071
207.100891 171.276001
207.90799 57.421719
207.936615 31.6859
208.017105 15.80342
208.137711 14.53289
208.950043 21.66116
209.062073 18.539789
209.116959 4655.191895
209.17276 13.67628
209.193253 24.36915
209.34639 27.999599
209.373566 21.10714
209.464676 15.33409
209.525101 11.68116
209.560349 13.66745
209.638748 20.173611
209.825592 31.33452
210.094696 18.20056
211.097794 40.537628
211.109833 34.785179
211.131454 186.887207
211.146835 348.803711
211.204636 17.875
212.522385 21.728451
212.674072 14.36218
212.856949 12.18841
213.082535 26.952921
213.127579 251.464706
213.164825 140.172897
213.512009 11.33333
213.547211 20.90774
215.142212 499.69809
215.575821 29.30566
216.184082 18.671539
217.120605 399.207001
217.155945 217.216293
217.274887 11.33333
217.844589 25.39716
217.998642 11.62703
218.877045 14.38568
219.096054 18.81349
219.136963 2129.01001
219.263947 15.66912
219.392715 13.02815
219.75972 35.767281
220.357422 21.18519
221.114349 206.571793
221.153366 772.251221
221.45874 14.71429
221.75 17.111839
223.109802 287.138214
223.165115 97.761902
225.13327 12.86404
225.162109 173.710205
226.133102 23.44858
227.104156 122.260399
227.140335 139.183197
227.173447 117.636398
228.592453 11.04545
229.123138 51.993328
229.156921 77.430237
230.329987 22.135639
231.138184 1323.723999
231.309113 13.69643
231.520996 11.92064
231.83432 24.221491
231.865372 29.507179
231.992279 12.0
233.114212 84.44236
233.151031 176.197495
234.622635 24.809919
234.772888 25.82407
235.132004 278.483887
235.163757 40.836731
236.555573 10.5328
237.128036 58.99786
237.150406 477.768188
237.425888 35.77124
237.450531 10.22685
237.728836 16.27425
237.88797 18.85833
239.154114 66.375
241.122498 93.672112
241.157684 69.114693
241.196854 229.009796
241.461823 15.6
242.488739 15.72794
243.135605 33.35376
243.171127 89.857422
243.291153 14.67045
243.399704 13.15369
245.114059 65.375954
245.151886 87.064796
246.135681 106.557701
247.006088 15.03571
249.038727 23.35918
249.146576 376.226593
251.178665 330.139587
251.741501 11.05333
253.157272 388.575195
253.191025 163.154495
254.558884 12.35874
255.140366 220.576706
255.171906 263.27359
255.625702 11.48457
257.14975 31.639709
258.123627 14.04003
258.159698 34.075001
259.164551 155.920197
259.207184 26.44792
260.138947 20.75
261.161072 197.354996
261.179932 78.341164
261.240601 10.85799
261.31369 12.07018
263.197205 10.34722
264.15332 113.330498
264.176361 42.291359
267.17276 54.83215
269.135681 11.20119
269.151184 44.71648
269.188782 511.778412
269.348938 16.852369
271.169312 768.138916
271.202667 81.371239
271.259308 13.73851
271.647736 11.22222
272.016479 13.39919
273.119659 11.73485
273.154327 27.841181
273.185852 59.30867
274.073212 33.565929
277.179657 228.545303
277.494293 18.20056
277.52359 20.31045
278.594666 10.81667
279.173492 1792.151001
279.283234 28.51557
279.456512 11.85799
279.730286 28.40139
280.766022 11.4359
281.367493 15.21111
281.606689 21.09145
285.182159 108.538902
287.199524 652.057922
287.486328 15.71902
289.119934 15.03409
289.179565 1118.360962
289.750244 11.32003
290.283447 15.13587
290.330841 11.37778
295.170074 20.07412
295.602264 11.94707
296.330902 16.841181
296.666656 21.68889
297.042999 80.574738
297.184326 3642.85498
297.392029 10.125
297.416168 24.1765
297.463715 20.0026
297.517761 26.715851
297.56427 20.627029
297.709534 17.095131
297.812836 11.81341
297.836853 17.60178
298.292328 19.34914
298.472534 12.66919
298.616821 10.39701
299.067108 190.764206
299.109406 16.987181
299.202911 10.71627
307.193176 25.952921
311.196991 25.03582
313.625702 22.586161
313.752289 11.21814
313.916046 16.46944
314.98996 11.18939
315.122314 77.13002
315.194946 3816.660889
315.355286 19.22669
315.486206 19.559681
315.512054 48.6446
315.55658 10.0498
315.5914 21.00119
315.662262 15.53846
315.798065 11.06888
315.890808 9.548245
315.927917 15.32898
315.965363 11.6886
316.033051 10.06618
316.286652 12.0744
317.024414 11.89744
319.182404 24.006821
322.023041 12.34405
331.2211 12.67539
332.219025 13.75439
332.279602 13.59559
332.565796 21.367519
333.206299 1843.75
333.277252 17.33333
333.527679 50.86298
333.65097 10.49662
333.900879 21.191139
333.994049 18.128031
338.849548 12.2838
347.221619 51.87764
349.104187 51.430561
349.206604 40.867649
349.339355 11.17708
352.085083 18.66667
357.204895 220.095993
365.230194 44.057652
367.65918 21.00082
373.227264 12.16009
375.214355 1089.390015
375.265137 18.00556
375.447083 17.08013
375.50528 9.934524
375.53775 11.0336
375.89621 13.675
376.024384 10.41346
376.133179 18.48563
376.172791 14.66987
376.355011 12.6881
379.087463 59.432121
385.767242 14.02797
393.223846 113.7089
407.245819 49.049381
408.118225 28.33392
408.143433 47.63958
420.499115 32.154301
421.138092 23.90675
424.19104 19.388889
428.344269 44.715912
434.116058 29.283951
434.167969 23.481541
436.192139 54.095638
438.977722 15.50347
448.423676 11.0947
449.131165 12.0
449.800232 63.585041
450.186493 22.481991
450.257599 42.781212
450.348419 12.70379
450.401794 16.7815
450.471375 49.091728
450.518585 25.59638
450.570007 17.006821
450.624023 19.105261
450.663086 20.56019
450.838043 38.16806
450.861267 16.639179
450.928375 20.671301
451.199524 315.612
451.286713 13.49135
451.369934 28.47197
451.540039 12.32018
452.13092 12.02899
452.857971 10.59259
453.055634 11.70417
453.132568 24.80278
453.212494 13721.19043
453.305542 139.641907
453.365143 15.74921
453.38913 136.644608
453.425079 82.204948
453.462677 98.122093
453.495026 88.765137
453.521057 18.00181
453.545868 81.601852
453.594116 77.916672
453.625763 45.717121
453.674652 39.257759
453.723877 28.067209
453.75412 21.347219
453.856171 102.929901
454.066895 21.654881
454.275208 49.659401
454.531372 19.89352
454.576263 75.588448
454.959717 21.26667
455.36438 16.253969
455.508942 18.585421
455.74649 32.002979
456.103088 12.16447
456.184052 41.44371
459.14679 17.352989
461.940521 16.153851
463.365631 13.05357
465.070038 39.67244
467.158875 36.145081
469.207977 29.42342
474.149078 32.195961
477.151703 20.73374
480.309937 13.09091
482.210968 30.126499
489.156342 34.691471
491.182068 11.0947
491.892395 19.50379
494.208466 37.407459
501.966431 52.853329
502.246002 27.057249
503.306885 9.678763
503.988495 24.524771
505.150482 10.70249
506.361694 73.549316
506.786499 12.79688
506.825439 19.56019
507.16745 109.515404
508.41629 14.72043
514.176514 33.94614
514.309998 29.8962
528.194824 13.91159
529.183716 11.69823
530.074402 63.512661
538.039917 17.52083
548.455322 10.54833
551.200317 29.23164
559.285461 44.831749
573.263184 30.879999
580.222168 16.75
581.389893 26.062241
595.237671 69.867859
598.235962 56.667511
603.283691 26.506689
603.839355 19.341459
613.246765 53.349411
616.244324 13.1875
618.271912 23.6369
631.266235 30.75676
631.558105 22.619591
637.245789 22.816669
656.443359 18.341311
658.246765 31.049749
659.279053 25.222879
661.319641 85.001778
673.280334 61.69408
674.121582 21.8848
676.266663 177.531403
676.471924 9.926471
677.005676 12.37306
678.317749 24.33379
680.340637 10.66667
684.164368 20.06349
691.279419 48.79121
692.602722 12.51852
708.291992 110.493698
708.71405 22.71167
709.391113 13.27229
710.029541 11.28125
713.381653 17.08046
723.35614 91.301086
731.391602 97.905197
734.862915 23.399509
745.008362 10.06618
757.423401 11.00833
767.396851 64.632156
768.039856 19.77844
780.293945 14.15802
780.486633 26.631689
781.2948 33.671959
781.90033 22.42857
785.407349 1603.005005
785.622131 24.823721
785.663635 11.33333
785.702942 13.22377
785.791992 45.400799
785.979126 11.08232
786.51355 22.424999
786.741028 27.09091
786.9552 18.498631
787.307251 15.78241
799.433044 24.688959
800.431152 36.727612
803.426453 30.08688
804.499878 11.0
809.403748 64.67157
816.365417 14.66759
817.427307 241.866394
817.734741 15.11667
818.84259 27.83732
821.312988 13.52447
822.836975 20.875
823.198547 15.34921
823.477905 14.97222
827.422302 413.905609
827.786987 15.61477
827.97644 19.671949
828.348389 16.37879
828.398132 30.64015
828.787537 15.33452
830.775513 14.83013
831.20282 12.00097
833.083984 16.68174
833.862976 21.26667
833.977539 20.29657
835.189453 15.4109
835.470947 15.13172
836.587952 16.73848
836.807556 22.864071
838.640625 11.77193
838.692932 12.00397
839.014282 18.36842
839.097961 11.94707
839.431824 36.559299
839.515686 57.499199
839.596924 646.835388
839.652039 383.692291
839.70929 71.051399
839.773804 350.070404
839.870483 668.00238
839.902588 547.137695
839.955383 509.69101
840.000671 869.207397
840.14093 78.630951
840.185303 408.699493
840.235474 236.539597
840.303406 449.543793
840.680969 140.678207
840.751465 89.897926
840.8172 72.120483
841.121704 135.183594
841.370361 108.187302
841.542847 237.047501
841.604736 25.61496
841.723999 166.001297
841.817261 120.276001
841.896912 190.899399
842.46637 23.653851
842.61084 50.343769
842.678955 75.256958
842.873718 74.735847
842.968445 139.070602
843.054504 135.381699
843.153564 57.857109
843.234436 56.275089
843.393188 204.245193
843.845581 47.18409
843.942078 92.019836
844.049194 20.73284
844.231384 92.368301
844.282593 10.38081
844.305054 10.88889
844.499878 104.528198
844.573364 168.831299
845.203125 34.08329
845.263123 101.691803
845.433167 336995.0
846.287659 768.21582
846.56604 515.32373
846.668701 559.341125
846.840271 349.917297
846.891846 459.103912
846.968262 792.40448
847.10614 675.395874
847.197693 283.894806
847.439331 350.017212
847.776062 79.0877
848.183777 80.459862
848.260925 257.927094
848.297119 336.470306
848.390503 99.712357
848.647217 309.283691
848.71875 182.386902
848.953186 19.917
849.037476 181.826599
849.525757 50.323071
849.573303 78.095947
849.75824 30.25778
849.96582 38.599171
850.354187 37.352058
850.609802 86.943497
850.683167 32.107059
851.749023 13.08333
851.830139 11.70417
851.893372 99.964844
851.957153 27.92491
851.98761 115.7136
852.086609 54.160049
852.132507 10.14815
852.21582 42.10099
852.554016 17.91667
853.186462 60.865742
853.329895 16.78241
853.485535 12.9881
853.775513 13.74167
854.012634 10.98077
854.15686 11.39682
854.601013 20.044451
855.072144 11.66786
855.265015 21.485279
855.436462 14.16329
855.733521 12.49223
856.404968 11.15278
856.598755 14.42157
857.049194 25.590429
857.65802 23.34444
859.446533 486.106903
859.55365 23.011499
861.656433 11.125
862.638855 19.348431
863.101257 20.544451
863.345337 17.66748
864.212158 12.30682
865.142151 15.10205
866.923767 24.49251
868.647095 21.933889
870.984741 12.81333
871.355774 23.21126
871.437256 147.082504
871.501038 198.910004
871.585266 276.413788
871.652954 110.066803
871.708923 103.3367
871.766479 19.79167
871.855286 139.704605
871.897705 177.994293
872.252563 51.383911
872.484131 25.673941
872.771057 44.17347
872.843811 10.34667
873.022461 55.967091
873.143982 86.52179
873.302734 106.277
873.447754 29.18413
873.578857 33.23175
874.18573 93.661186
874.48407 77.97541
874.562256 48.60622
874.91803 39.005329
875.296875 43.601952
876.045654 12.23184
876.44519 19.73387
876.980469 12.67348
877.241699 22.79431
877.294739 40.37653
877.361694 37.060211
877.459595 59631.230469
877.870605 313.201111
877.941162 60.58075
877.980896 81.326012
878.034668 128.395096
878.139404 251.259506
878.228455 422.4375
878.269897 393.540009
878.3573 329.520508
878.598938 203.5746
878.656006 217.055893
878.713623 21.569559
878.900879 149.6082
878.97876 271.723389
879.064697 141.218002
879.1875 146.4646
879.449463 50.733299
879.513977 56.891701
879.748901 87.209412
879.807434 87.675987
880.128235 67.660103
880.426453 105.599297
880.480164 50.057758
880.574768 66.593391
881.019836 31.24008
881.271545 11.18056
881.633911 25.69804
881.886902 46.8088
882.844421 29.10317
882.997253 10.6
883.143066 27.4471
883.369141 10.71646
884.019043 14.72149
884.371948 21.374109
885.614258 27.372101
885.980774 41.229198
886.240173 25.793209
886.360596 29.749069
890.67157 14.3649
892.180115 26.444441
902.046265 10.90948
905.301331 19.95047
914.281982 11.36232
921.438721 17.710501
922.917358 10.69207
928.051025 28.71875
938.710449 10.67045
943.492188 14.27161
945.655151 19.22669
984.272461 16.705191
1050.510864 17.171749
1469.325317 12.41554
1571.648926 37.34697
