>compound Natamycin
>formula C33H47NO13 
>ionization [M+H]+
>parentmass 666.311584
#inchi InChI=1S/C33H47NO13/c1-18-10-8-6-4-3-5-7-9-11-21(45-32-30(39)28(34)29(38)19(2)44-32)15-25-27(31(40)41)22(36)17-33(42,47-25)16-20(35)14-24-23(46-24)12-13-26(37)43-18/h3-9,11-13,18-25,27-30,32,35-36,38-39,42H,10,14-17,34H2,1-2H3,(H,40,41)/t18-,19-,20+,21+,22+,23-,24-,25+,27-,28+,29-,30+,32+,33-/m1/s1
#inchikey NCXMLFZGDNKEPB
#Ion_Source LC-ESI
#Instrument qTof
#Compound_Source Isolated
#PI Sirenas
#Data_Collector Ed Esquenazi 
#Scan -1
#Precursor_MZ 666.313
#ExactMass 0.0
#Charge 1
#CAS_Number N/A
#Pubmed_ID N/A
#Smiles N/A
#INCHI_AUX N/A
#Library_Class 3
#SpectrumID CCMSLIB00000004692
#IonMode Positive
#UpdateWorkflowName UPDATE-SINGLE-ANNOTATED-BRONZE
#LibraryQualityString Bronze
#TaskID d19310cd93df49b68e9fcbec27720eb5
##Scan# 1
#SpectrumFile Natamycin.mgf
#LibraryName fda_library.mgf
#MQScore -1
#Organism fda_library
#TIC_Query 0
#RT_Query -1
#MZErrorPPM -1
#SharedPeaks 0
#MassDiff 0
#LibMZ -1
#SpecMZ 666.313
#SpecCharge 0
#internalFilename spec-00000.mgf

>collision 10
105.066742 26.504169
119.083008 46.955681
135.044434 3.007813
157.098907 20.981939
163.520325 4.004167
167.084457 36.481129
181.083389 25.01042
182.202362 8.822322
183.114853 15.48532
185.131271 10.16736
203.142685 109.573799
205.714294 3.264803
215.334854 1.836806
231.065933 22.698891
231.093384 25.452829
243.132584 10.61343
243.172379 14.12247
245.092087 6.28125
259.135803 14.36736
271.172028 8.264706
273.06604 6.025
277.063568 35.027889
323.822052 5.104167
329.916626 7.052802
339.157257 24.759701
343.164917 28.52857
345.175842 29.82008
355.113037 6.3375
367.113495 22.32143
386.48349 10.14349
392.146393 1.760417
401.174286 3.75
405.071075 2.25625
405.205322 14.53846
406.354218 4.322917
423.316284 8.05
423.574402 9.184028
423.616943 6.03125
431.198914 34.419079
441.226807 92.101707
443.565674 1.765625
449.190674 49.976662
449.208313 37.396969
449.79303 6.84375
450.000183 3.398897
465.330719 3.55625
467.204712 268.719086
467.291443 1.502841
468.006134 13.53204
468.533112 6.420139
468.630798 13.27889
468.962433 6.002976
482.201141 1.520833
482.384247 5.572321
483.210052 3.060096
484.817139 14.75231
484.947296 9.674569
485.21875 307.509308
485.573456 9.974457
485.646881 2.53125
485.744324 4.322917
485.862152 9.541881
485.97467 6.793478
486.182007 12.66716
486.965363 6.389009
487.335022 4.620066
488.039764 5.195602
500.094696 4.27694
500.872986 3.005682
503.22702 390.672211
503.492432 4.755208
503.556122 23.12326
503.913727 5.65125
504.344086 12.53561
546.901672 29.32654
567.000244 26.972321
604.530029 5.3125
604.863647 7.253472
605.248779 8.521739
630.277832 54.779499
639.252747 5.05
647.9422 17.29495
648.30304 250.741501
648.632019 8.250947
648.887024 5.266667
649.32135 10.29002
649.68927 1.375
664.066467 4.620066
666.311584 85.594437
666.372437 3.291118
666.651917 14.1509
667.064087 9.863426
668.034851 3.25
668.510864 3.560096
670.121948 11.9712
847.304077 3.142857
1462.457397 1.265625
