>compound 2-methyl-1,2,3,4,10,14b-hexahydrobenzo[c]pyrazino[1,2-a]pyrido[3,2-f]azepine
>formula C17H19N3
>ionization [M+H]+
>parentmass 266.166351
#inchi InChI=1S/C17H19N3/c1-19-9-10-20-16(12-19)15-7-3-2-5-13(15)11-14-6-4-8-18-17(14)20/h2-8,16H,9-12H2,1H3
#inchikey RONZAEMNMFQXRA
#Ion_Source LC-ESI
#Instrument qTof
#Compound_Source Commercial
#PI Dorrestein
#Data_Collector Garg_Neha
#Scan -1
#Precursor_MZ 266.165
#ExactMass 265.158
#Charge 1
#CAS_Number N/A
#Pubmed_ID N/A
#Smiles CN1CCN2C(C1)c3ccccc3Cc4cccnc24
#INCHI_AUX N/A
#Library_Class 1
#SpectrumID CCMSLIB00000079235
#IonMode Positive
#UpdateWorkflowName UPDATE-SINGLE-ANNOTATED-GOLD
#LibraryQualityString Gold
#TaskID 278b19f5865741e282cec7349aa7e7a1
##Scan# 1033
#SpectrumFile NCP003672_A27B27C27D27_BE4_01_15740.mzXML
#LibraryName NIHcollectionI_05062014.mgf
#MQScore -1
#Organism NIHcollectionI_05062014
#TIC_Query 0
#RT_Query -1
#MZErrorPPM -1
#SharedPeaks 0
#MassDiff 0
#LibMZ -1
#SpecMZ 266.165
#SpecCharge 0
#internalFilename spec-00000.mgf

>collision 10
44.955708 164.0
45.525997 184.0
45.636185 192.0
46.240532 148.0
46.96199 188.0
47.855492 168.0
49.8587 184.0
50.061279 180.0
50.872864 172.0
51.041935 216.0
54.473469 140.0
56.381935 156.0
57.804581 156.0
58.008156 164.0
58.160732 172.0
58.546913 152.0
58.845783 156.0
58.955761 160.0
59.98103 140.0
60.698391 164.0
61.420017 152.0
61.899815 200.0
63.255402 196.0
63.834499 160.0
65.124229 140.0
65.296204 140.0
65.309074 164.0
67.501793 236.0
67.639221 176.0
67.917778 176.0
68.626572 192.0
71.028076 160.0
71.207848 116.0
71.337051 228.0
72.600014 172.0
72.835922 192.0
73.336372 168.0
73.621086 152.0
74.63726 172.0
75.27137 220.0
81.490265 172.0
82.042778 148.0
82.745552 232.0
83.507698 148.0
84.981911 152.0
85.073677 148.0
85.595833 168.0
85.918373 160.0
85.958969 188.0
86.049408 196.0
87.903709 180.0
88.092278 152.0
89.369011 168.0
92.051086 160.0
93.050697 184.0
93.970673 144.0
95.826149 176.0
96.266975 172.0
97.623055 148.0
97.874924 232.0
98.213898 284.0
99.333473 228.0
100.467369 156.0
100.814789 160.0
101.361092 184.0
101.52948 196.0
102.81501 172.0
103.544846 164.0
104.063965 144.0
104.450081 216.0
104.614906 200.0
105.068474 144.0
105.224472 204.0
106.216988 164.0
106.903206 156.0
107.066223 128.0
108.216003 160.0
109.163124 168.0
113.208229 144.0
113.50914 208.0
113.954872 160.0
114.552681 288.0
115.05658 356.0
115.275955 192.0
116.061981 172.0
116.422035 164.0
116.454254 140.0
116.572411 212.0
116.996132 152.0
117.047798 180.0
119.06395 188.0
121.075401 296.0
122.398178 152.0
123.767189 172.0
124.367966 196.0
126.0494 148.0
127.922142 144.0
128.03923 152.0
128.555481 180.0
129.102173 144.0
129.586563 208.0
130.06424 164.0
131.066605 124.0
131.088501 256.0
131.348419 148.0
132.690781 140.0
133.076782 160.0
133.197952 168.0
133.572632 140.0
133.680756 188.0
135.088654 264.0
135.674057 160.0
135.96167 160.0
136.5448 180.0
141.069046 180.0
141.986633 140.0
143.068924 136.0
143.389328 216.0
144.07782 656.0
144.365738 224.0
144.770172 260.0
145.084244 164.0
149.389206 156.0
150.17186 144.0
150.98909 176.0
151.051178 144.0
151.744232 188.0
152.490479 188.0
152.746185 216.0
152.763397 164.0
153.351898 148.0
153.371613 156.0
153.428314 144.0
154.255295 204.0
155.084503 208.0
155.176224 144.0
155.406891 160.0
156.066223 172.0
156.095139 224.0
157.046265 156.0
157.086182 156.0
159.103012 172.0
160.098892 176.0
160.552505 148.0
162.081879 156.0
163.295334 140.0
163.402161 156.0
164.81723 180.0
165.070129 180.0
166.070145 240.0
167.047714 144.0
167.076675 688.0
167.408035 268.0
168.080322 280.0
169.171494 144.0
170.100739 144.0
171.097763 260.0
171.916199 204.0
174.259735 180.0
175.678741 140.0
176.468399 152.0
176.84668 140.0
176.873154 196.0
177.069077 164.0
178.067398 552.0
179.072144 192.0
179.444687 168.0
180.081467 1448.0
181.080475 252.0
182.096527 1656.0
182.542664 160.0
182.588379 176.0
183.097229 312.0
183.350266 156.0
183.807236 132.0
184.11644 196.0
184.754333 168.0
185.100784 172.0
187.774872 148.0
189.921921 144.0
190.264923 148.0
190.591766 184.0
190.744446 180.0
191.048157 144.0
191.071487 148.0
192.082443 524.0
193.084839 208.0
193.899261 208.0
194.08461 3932.0
194.157791 156.0
194.413544 168.0
194.808365 160.0
194.832809 160.0
194.878906 108.0
194.944077 212.0
194.982361 136.0
195.032883 228.0
195.06311 336.0
195.092041 75120.0
195.15303 108.0
195.192566 228.0
195.431946 104.0
195.531876 140.0
195.554764 144.0
195.831985 100.0
196.095215 7184.0
196.430695 212.0
196.603683 228.0
197.097672 688.0
197.257462 104.0
197.412582 116.0
197.572769 136.0
202.196381 164.0
203.071838 148.0
204.086426 144.0
204.520004 128.0
205.075302 336.0
206.10141 240.0
206.51532 196.0
207.09198 916.0
207.523315 144.0
208.095367 324.0
209.107452 6556.0
209.399796 176.0
209.46315 164.0
210.110977 1148.0
210.44368 160.0
211.11528 268.0
211.238419 148.0
211.771011 156.0
212.556641 140.0
213.053131 216.0
213.422241 140.0
217.083618 232.0
217.239395 184.0
217.526978 144.0
218.093353 476.0
219.091049 504.0
219.13562 196.0
220.098267 320.0
221.114883 372.0
221.658966 212.0
222.112564 268.0
223.123154 1364.0
223.227234 100.0
224.124512 396.0
224.211655 140.0
224.414352 160.0
230.096924 148.0
231.1185 140.0
232.112015 140.0
233.106644 648.0
233.138428 128.0
233.627579 208.0
234.112457 236.0
235.122192 2056.0
235.966721 192.0
236.12674 796.0
237.108475 148.0
237.138763 208.0
237.356781 144.0
241.09079 192.0
243.283218 124.0
243.992035 168.0
247.633591 356.0
248.131821 164.0
250.12886 184.0
252.056747 240.0
254.066513 120.0
255.080246 140.0
256.66571 180.0
259.101166 168.0
261.432281 184.0
262.111725 176.0
264.148865 912.0
264.404541 180.0
265.153046 480.0
265.198029 216.0
265.460632 164.0
265.535217 184.0
265.629272 192.0
265.717499 124.0
265.785004 240.0
265.818848 140.0
265.914795 208.0
266.017151 136.0
266.073975 212.0
266.166351 89828.0
266.357086 112.0
266.391083 140.0
266.673065 96.0
266.699738 188.0
266.796631 100.0
266.881927 168.0
266.954376 140.0
267.022675 164.0
267.076324 220.0
267.105865 156.0
267.169037 11816.0
267.250397 204.0
267.53772 140.0
267.581146 116.0
267.945099 96.0
268.00174 152.0
268.071106 136.0
268.171326 1312.0
268.522095 124.0
268.737152 176.0
268.840393 152.0
268.899933 140.0
268.973511 136.0
269.08194 288.0
269.142273 132.0
277.127075 168.0
380.153534 204.0
380.180695 148.0
397.193634 156.0
1054.173706 244.0
1099.213745 160.0
1444.858887 216.0
1549.415039 188.0
1642.867676 228.0
1697.681763 152.0
1712.474854 228.0
1769.625732 168.0
1772.892578 152.0
1782.685791 168.0
1923.749756 200.0
1927.688843 240.0
1949.623291 152.0
1954.09021 168.0
1966.515259 196.0
