>compound MLS000069531-01!Chlorthalidone
>formula C14H11ClN2O4S
>ionization [M+H]+
>parentmass 339.022
#inchi InChI=1S/C14H11ClN2O4S/c15-11-6-5-8(7-12(11)22(16,20)21)14(19)10-4-2-1-3-9(10)13(18)17-14/h1-7,19H,(H,17,18)(H2,16,20,21)
#inchikey JIVPVXMEBJLZRO
#Ion_Source LC-ESI
#Instrument qTof
#Compound_Source NIH Pharmacologically Active Library
#PI Dorrestein
#Data_Collector VP/LMS
#Scan -1
#Precursor_MZ 339.022
#ExactMass 338.013
#Charge 1
#CAS_Number N/A
#Pubmed_ID N/A
#Smiles NS(=O)(=O)c1cc(ccc1Cl)C2(O)NC(=O)c3ccccc32
#INCHI_AUX N/A
#Library_Class 3
#SpectrumID CCMSLIB00000085714
#IonMode Positive
#UpdateWorkflowName UPDATE-SINGLE-ANNOTATED-BRONZE
#LibraryQualityString Bronze
#TaskID d252d724072548979f1f6f1ced849daf
##Scan# 1477
#SpectrumFile p4-E06_GE6_01_18378.mzXML
#LibraryName Pharm_Active_Library.mgf
#MQScore -1
#Organism Pharm_Active_Library
#TIC_Query 0
#RT_Query -1
#MZErrorPPM -1
#SharedPeaks 0
#MassDiff 0
#LibMZ -1
#SpecMZ 339.022
#SpecCharge 0
#internalFilename spec-00000.mgf

>collision 10
45.322819 128.0
45.675911 96.0
45.814568 112.0
46.517792 136.0
47.515415 160.0
48.809658 124.0
49.050518 124.0
49.84127 128.0
50.151558 176.0
50.2369 136.0
50.658176 184.0
52.24715 112.0
52.555481 68.0
52.900902 108.0
53.12117 164.0
54.639309 164.0
54.802521 88.0
55.249882 140.0
55.377186 144.0
55.507603 148.0
55.553581 180.0
55.911678 120.0
55.95187 116.0
56.135143 200.0
56.266449 148.0
56.29034 164.0
56.832211 124.0
56.851719 148.0
56.890747 164.0
57.000389 148.0
57.189884 164.0
57.338997 176.0
57.671047 136.0
58.336506 188.0
58.703449 136.0
58.793457 136.0
58.866734 180.0
59.284367 232.0
59.373283 156.0
59.697327 112.0
60.556969 148.0
61.061394 164.0
64.294563 228.0
64.379173 224.0
65.514809 200.0
65.87133 176.0
66.047523 44.0
66.227196 168.0
66.678246 40.0
66.751404 164.0
66.883186 100.0
67.509705 128.0
67.694626 104.0
68.099716 136.0
68.147354 160.0
68.339729 120.0
69.106972 136.0
69.449898 152.0
69.69062 164.0
72.404953 136.0
72.616806 180.0
73.720032 132.0
74.327942 136.0
74.372566 124.0
74.437805 240.0
74.561501 152.0
76.171875 192.0
76.3283 136.0
76.490105 148.0
76.960823 192.0
77.354187 160.0
77.911865 96.0
78.596771 148.0
79.660835 196.0
79.842133 172.0
81.334061 228.0
81.398689 180.0
81.483109 152.0
81.862648 120.0
82.447151 200.0
82.559242 200.0
82.939453 156.0
83.809982 172.0
84.067093 68.0
85.721222 128.0
85.79126 180.0
85.962799 204.0
86.628418 204.0
86.878685 196.0
87.006737 48.0
87.246399 176.0
87.767723 164.0
88.472099 136.0
89.823265 108.0
90.35601 152.0
91.352005 172.0
91.658539 172.0
92.451042 164.0
93.778168 212.0
94.755981 28.0
95.596764 256.0
96.411934 144.0
96.666161 112.0
96.724876 96.0
96.995201 40.0
97.71582 144.0
98.838638 172.0
99.115852 188.0
99.327995 212.0
99.69133 220.0
99.752945 108.0
100.352196 144.0
100.577629 272.0
100.865273 180.0
101.042145 240.0
101.628304 56.0
101.78286 132.0
102.050652 248.0
102.082275 160.0
102.902374 44.0
103.053864 124.0
103.517075 212.0
103.693329 164.0
103.933807 196.0
103.979301 228.0
104.564636 192.0
105.029892 168.0
105.758652 128.0
106.033112 136.0
106.049507 236.0
106.168419 160.0
106.219696 196.0
106.320236 168.0
106.519402 148.0
106.63652 156.0
109.06105 220.0
109.627151 148.0
109.718864 120.0
110.200989 108.0
110.615074 104.0
110.650665 168.0
111.069794 160.0
111.584305 168.0
111.996773 124.0
112.142159 68.0
113.170967 36.0
113.731346 104.0
114.634529 128.0
114.698471 160.0
114.749634 200.0
114.856262 176.0
115.073936 96.0
116.004578 100.0
116.450897 164.0
117.020767 152.0
117.068146 128.0
117.343956 172.0
118.714867 200.0
121.002831 144.0
121.044426 216.0
121.298576 164.0
121.41259 120.0
121.660538 88.0
122.093407 208.0
122.606369 132.0
122.63723 72.0
123.221283 180.0
123.398834 252.0
123.504982 140.0
124.509018 124.0
124.653419 188.0
124.684532 112.0
125.009224 60.0
125.03035 160.0
125.305367 96.0
125.383362 172.0
125.434624 144.0
125.49482 124.0
125.628639 188.0
125.943382 164.0
126.017105 36.0
126.044548 736.0
126.104256 128.0
126.634529 188.0
127.054405 216.0
127.15918 76.0
127.222031 72.0
127.367996 60.0
127.896408 144.0
127.997719 200.0
128.459763 160.0
129.033386 204.0
129.30484 108.0
129.490494 96.0
130.024704 300.0
130.078781 196.0
131.114944 208.0
131.178772 184.0
132.044693 156.0
132.245499 64.0
134.964767 180.0
135.406769 144.0
136.797638 148.0
136.818604 192.0
137.011841 152.0
137.863571 224.0
137.959396 76.0
138.048248 168.0
138.352432 100.0
138.995193 200.0
139.023331 176.0
139.053543 908.0
140.053329 176.0
140.099701 136.0
140.323593 104.0
141.055435 184.0
142.341934 96.0
142.793472 92.0
143.526962 160.0
143.553192 172.0
144.009613 524.0
144.116531 156.0
144.220047 152.0
144.530182 196.0
144.680969 192.0
145.515305 180.0
145.635376 180.0
145.765106 180.0
145.993484 56.0
147.742233 164.0
148.039978 928.0
148.546524 144.0
149.011993 212.0
149.040359 164.0
149.606064 68.0
149.937332 80.0
150.045059 1176.0
150.112854 72.0
150.674255 128.0
150.740219 164.0
151.05278 996.0
151.217117 156.0
151.579575 128.0
152.06044 2892.0
152.182983 108.0
152.205078 36.0
153.033386 324.0
153.069855 588.0
153.351501 120.0
154.070633 132.0
154.183243 116.0
154.836395 188.0
155.049286 420.0
155.054932 488.0
155.374298 80.0
155.421432 48.0
155.831116 140.0
156.149307 128.0
157.585175 52.0
160.529587 140.0
161.014618 1200.0
161.421005 68.0
161.580368 32.0
161.924622 60.0
162.010757 168.0
162.421417 192.0
162.842758 40.0
162.916428 100.0
163.01207 688.0
163.511444 216.0
163.712555 128.0
164.54126 148.0
164.942352 168.0
165.610184 232.0
166.064255 128.0
166.642914 180.0
166.697983 168.0
166.862488 132.0
167.045639 552.0
167.070435 356.0
167.851227 88.0
168.055756 680.0
168.628296 160.0
169.063553 180.0
170.045029 160.0
170.065796 104.0
170.268311 164.0
170.304672 148.0
170.369614 52.0
170.564514 144.0
170.702316 144.0
170.939041 128.0
171.037933 176.0
171.063965 156.0
171.418182 128.0
172.982666 236.0
173.026932 168.0
173.605545 132.0
174.6884 100.0
175.009155 132.0
175.036957 248.0
175.33876 160.0
175.536484 192.0
175.966583 92.0
177.047272 492.0
177.122253 188.0
177.530426 192.0
178.034653 140.0
178.059738 224.0
178.739105 184.0
179.00264 180.0
179.046967 660.0
179.08786 212.0
179.165115 88.0
179.290344 132.0
179.791733 52.0
180.018646 48.0
180.054733 444.0
181.028595 392.0
181.144669 112.0
181.241119 112.0
181.761322 132.0
181.887451 148.0
181.994843 156.0
182.034378 176.0
182.061981 148.0
182.376328 112.0
182.903534 56.0
183.032547 180.0
183.097397 140.0
183.207825 56.0
183.560913 224.0
183.981827 188.0
184.781815 180.0
185.013901 2604.0
185.179733 44.0
185.445267 80.0
185.513031 124.0
185.784225 168.0
186.021484 1284.0
186.077332 180.0
186.242981 116.0
186.313614 176.0
186.397842 140.0
186.666962 200.0
187.011765 840.0
187.65538 80.0
188.021652 240.0
188.048203 236.0
188.337631 48.0
188.635483 172.0
188.703827 108.0
188.949966 180.0
189.011353 1200.0
189.105957 48.0
189.133331 268.0
189.719543 52.0
189.906006 136.0
190.017075 276.0
190.24353 172.0
190.380814 40.0
190.438492 52.0
190.474197 196.0
191.011597 176.0
191.114777 60.0
192.012817 220.0
192.34668 144.0
192.611771 136.0
192.675308 48.0
193.818008 216.0
193.953812 144.0
193.984314 32.0
194.057358 184.0
194.916855 32.0
195.065735 564.0
195.214294 80.0
196.050385 424.0
196.562561 40.0
196.777496 124.0
196.984161 212.0
197.026062 160.0
197.059586 192.0
197.436951 84.0
197.764297 60.0
197.982681 188.0
198.372147 128.0
198.474304 184.0
198.607697 72.0
200.745178 184.0
200.790314 136.0
201.00502 360.0
201.04422 124.0
201.171234 136.0
202.007706 172.0
202.348679 192.0
202.423767 248.0
202.627701 184.0
202.777893 224.0
202.868591 40.0
203.027115 1056.0
203.291214 72.0
203.830765 156.0
204.029449 368.0
205.025436 420.0
205.299667 96.0
205.370972 112.0
207.041962 1200.0
207.415436 44.0
207.593201 96.0
207.802582 168.0
208.05043 404.0
209.127365 120.0
210.956192 132.0
211.03714 92.0
212.018463 200.0
212.917816 148.0
213.01033 1968.0
213.548508 108.0
213.638687 44.0
213.667786 68.0
213.923874 156.0
214.015945 1020.0
214.089844 52.0
214.293747 112.0
215.012207 556.0
215.11618 248.0
215.662415 64.0
216.015015 948.0
216.316071 172.0
216.73938 144.0
217.003464 172.0
217.305283 104.0
217.534195 112.0
217.716232 132.0
217.769104 64.0
218.00708 168.0
218.324585 68.0
218.815979 216.0
219.000671 240.0
219.198898 112.0
219.499573 120.0
219.871277 128.0
219.927353 152.0
219.962784 156.0
220.911362 40.0
220.982361 168.0
221.639694 72.0
221.939072 136.0
222.053162 312.0
223.034058 500.0
223.063171 1056.0
224.04892 180.0
225.052536 324.0
226.056854 228.0
227.041412 176.0
227.062286 156.0
227.389435 120.0
227.680664 80.0
227.842865 132.0
228.395996 156.0
229.009048 208.0
229.546478 100.0
230.020157 132.0
231.0186 564.0
232.010712 124.0
232.256348 140.0
232.738876 124.0
233.012283 256.0
233.339188 132.0
235.901367 76.0
235.95639 152.0
236.057297 128.0
236.702972 212.0
237.088959 128.0
237.613312 196.0
238.049377 116.0
239.374557 164.0
239.500824 240.0
240.019897 188.0
240.067932 168.0
240.296188 64.0
240.598648 188.0
240.669647 88.0
240.898193 140.0
241.005966 7556.0
241.050934 332.0
241.215805 108.0
241.339371 156.0
241.417465 32.0
241.62471 80.0
241.64946 164.0
241.686584 44.0
241.887756 44.0
241.940384 44.0
242.008408 1424.0
242.123077 144.0
242.271759 44.0
242.378357 76.0
242.559952 152.0
242.646759 48.0
242.745972 88.0
243.018723 7416.0
243.120255 104.0
243.211349 100.0
243.351059 32.0
243.416092 128.0
243.485779 104.0
243.51564 88.0
243.580872 72.0
243.624359 48.0
243.661636 36.0
243.705139 148.0
243.73436 148.0
243.804581 36.0
243.851196 104.0
243.877716 60.0
243.950668 52.0
244.020538 788.0
244.093689 48.0
244.280289 68.0
244.34874 60.0
244.460754 52.0
244.557236 104.0
245.0168 2712.0
245.195724 40.0
245.47319 36.0
245.501251 40.0
245.576096 100.0
245.635361 72.0
245.710602 104.0
245.750793 52.0
245.80072 96.0
246.019745 296.0
246.100388 220.0
246.95665 116.0
247.667175 44.0
248.152924 104.0
249.267212 32.0
249.411789 88.0
249.452652 224.0
249.657028 48.0
253.844513 76.0
255.216278 156.0
256.034119 68.0
257.0 112.0
257.114868 64.0
257.846252 44.0
258.031555 908.0
258.33548 92.0
259.016022 1260.0
259.097412 60.0
259.754578 160.0
260.018738 436.0
260.120422 32.0
260.525024 68.0
261.011414 604.0
261.454285 64.0
262.046783 116.0
262.614166 148.0
266.122162 228.0
267.998932 336.0
268.996155 176.0
272.271179 60.0
274.001617 372.0
275.002228 120.0
275.112823 64.0
275.996429 240.0
276.061096 84.0
276.133881 128.0
278.251343 56.0
281.247437 48.0
284.105194 152.0
286.003845 112.0
295.195007 152.0
295.916992 140.0
303.223511 140.0
303.979523 120.0
304.968201 1820.0
305.93985 232.0
305.97287 396.0
306.117432 168.0
306.19751 48.0
306.333374 56.0
306.786407 196.0
306.969116 392.0
307.644592 32.0
308.147491 76.0
308.374664 52.0
308.832672 96.0
309.525635 108.0
311.370239 112.0
321.635071 168.0
321.852844 192.0
321.906403 176.0
321.992188 5264.0
322.991272 464.0
323.039398 136.0
323.415131 172.0
323.988464 2080.0
324.142151 44.0
324.278351 60.0
324.54361 112.0
324.622498 48.0
324.84848 60.0
324.931 92.0
324.992706 188.0
325.031464 200.0
325.577087 44.0
326.01181 64.0
326.08728 156.0
326.328125 68.0
328.676575 136.0
337.419342 96.0
338.901642 92.0
341.263763 124.0
349.990479 140.0
370.919037 112.0
390.859985 36.0
404.069183 80.0
422.134674 48.0
438.20459 120.0
443.155731 20.0
458.453033 96.0
463.756989 132.0
471.33139 64.0
550.566772 116.0
599.856812 88.0
640.178345 44.0
649.452637 200.0
684.292664 32.0
691.622192 84.0
693.733215 120.0
694.766357 104.0
703.898376 92.0
753.962952 44.0
769.563965 128.0
818.583435 84.0
865.135498 96.0
939.618225 196.0
967.589294 56.0
1014.516968 168.0
1030.223267 188.0
1073.255249 96.0
1083.949341 180.0
1159.085571 156.0
1161.892578 132.0
1166.354248 124.0
1195.394653 108.0
1200.02356 140.0
1238.672119 200.0
1252.05249 132.0
1255.985474 196.0
1269.962402 76.0
1281.079956 176.0
1287.656616 184.0
1323.441284 152.0
1326.259399 196.0
1330.343384 48.0
1334.310059 168.0
1338.231689 220.0
1339.826782 136.0
1353.807251 136.0
1365.976562 196.0
1370.187622 76.0
1375.283203 156.0
1375.489868 164.0
1380.883911 32.0
1381.438599 136.0
1383.081421 152.0
1388.16394 104.0
1390.048096 172.0
1397.121582 188.0
1403.79541 172.0
1407.899902 116.0
1414.823975 128.0
1419.941895 148.0
1421.907593 124.0
1449.213989 100.0
1453.862427 96.0
1476.611816 204.0
1496.017578 72.0
1501.681274 204.0
1503.880249 164.0
