>compound Methoxsalen
>formula C12H8O4 
>ionization [M+H]+
>parentmass 217.05
#inchi InChI=1S/C12H8O4/c1-14-12-10-8(4-5-15-10)6-7-2-3-9(13)16-11(7)12/h2-6H,1H3
#inchikey QXKHYNVANLEOEG
#Ion_Source LC-ESI
#Instrument qTof
#Compound_Source Isolated
#PI Sirenas
#Data_Collector Ed Esquenazi 
#Scan -1
#Precursor_MZ 217.05
#ExactMass 0.0
#Charge 1
#CAS_Number N/A
#Pubmed_ID N/A
#Smiles N/A
#INCHI_AUX N/A
#Library_Class 3
#SpectrumID CCMSLIB00000005192
#IonMode Positive
#UpdateWorkflowName UPDATE-SINGLE-ANNOTATED-BRONZE
#LibraryQualityString Bronze
#TaskID d19310cd93df49b68e9fcbec27720eb5
##Scan# 3
#SpectrumFile Methoxsalen.mgf
#LibraryName fda_library.mgf
#MQScore -1
#Organism fda_library
#TIC_Query 0
#RT_Query -1
#MZErrorPPM -1
#SharedPeaks 0
#MassDiff 0
#LibMZ -1
#SpecMZ 217.05
#SpecCharge 0
#internalFilename spec-00000.mgf

>collision 10
100.031181 110.005898
100.569214 1.347756
100.796944 1.074405
101.037979 570.793091
101.079773 2.666667
101.09671 2.500718
101.166679 8.510135
101.345261 2.708333
101.35659 2.520833
101.397758 3.334005
101.646629 4.178241
101.673355 7.702147
101.682098 6.956018
101.79715 5.5
102.046204 954.20752
102.089043 2.0
102.100433 23.246679
102.198044 2.170833
102.226143 3.864583
102.239349 7.984543
102.247406 3.527412
102.313728 5.2625
102.331726 1.008333
102.36338 3.334559
102.456726 2.791667
102.464813 4.574074
102.56765 7.55
102.581223 3.907408
102.610085 1.901389
102.687393 8.337693
102.733315 3.500534
102.750946 4.134722
102.779449 13.40076
103.016594 11.85366
103.054077 721.807373
103.085594 11.99597
103.146278 3.199597
103.295876 4.040948
103.42205 3.000595
103.646507 3.504167
104.025551 34.572601
104.035019 8.336512
104.061508 230.3116
104.333298 3.002976
104.596375 5.697601
104.961205 14.28113
105.032272 120.3069
105.06942 539.583984
105.112953 3.352623
105.248512 14.00694
105.323494 5.877558
105.434204 2.334326
105.544975 6.502083
105.627205 5.480072
105.964218 31.003969
107.047951 75.527603
108.988655 24.78809
114.047394 6.518518
114.427147 7.201106
114.494148 3.0
114.698982 3.673611
114.885345 2.511029
115.053909 1583.233032
115.10186 10.03072
115.115845 4.203804
115.126122 7.774584
115.15358 2.175595
115.168701 6.335417
115.180107 4.394817
115.237633 12.11754
115.263557 7.247549
115.283325 9.340278
115.314003 8.201868
115.333237 6.335227
115.351921 2.503472
115.370636 4.481482
115.385033 4.854167
115.399811 7.760417
115.434494 18.934271
115.475807 7.537809
115.508904 6.805555
115.546295 3.333867
115.800728 1.5125
115.920166 2.673611
116.026726 43.396709
116.426331 6.280241
116.622116 3.984543
116.661583 2.166667
116.707108 0.854167
116.738533 1.335227
116.847748 2.206731
116.859146 1.866667
116.956642 2.833333
117.033615 1807.849976
117.080833 3.673611
117.096077 4.956389
117.145088 2.373398
117.182869 7.942345
117.20697 2.208333
117.231041 19.56888
117.246597 3.041667
117.262634 2.873775
117.281349 2.520833
117.287956 4.231304
117.307617 19.69068
117.344223 1.3375
117.372711 9.451923
117.3908 11.78205
117.404808 0.8375
117.416092 10.54431
117.447029 15.53089
117.463036 13.2723
117.483955 2.167763
117.516403 19.34226
117.535301 6.430978
117.553375 3.504167
117.57444 17.507351
117.588348 15.96477
117.612541 14.24271
117.640305 39.065319
117.664825 3.906703
117.683784 3.615385
117.714188 2.083333
117.768173 3.540441
117.782738 12.48395
117.848282 3.000906
117.948425 11.82008
117.96711 6.60947
118.003006 2.1875
118.04142 16055.05957
118.0877 98.912697
118.117714 18.65237
118.147591 18.462549
118.166626 7.104167
118.182251 6.077538
118.196968 23.785191
118.228333 11.42614
118.247032 47.473949
118.256599 9.214881
118.270699 17.527969
118.288689 19.045959
118.299835 5.011574
118.308693 31.02977
118.326614 5.704938
118.347122 33.541
118.365082 34.752998
118.373589 53.07811
118.3834 15.01488
118.395638 5.086693
118.408165 27.078489
118.42852 4.074405
118.448196 33.376148
118.459671 4.662725
118.500061 19.645479
118.514946 17.60021
118.524025 6.720395
118.536209 8.952381
118.544037 2.895833
118.567947 5.506945
118.59539 14.18718
118.605721 4.541667
118.628471 6.006945
118.680885 12.90947
118.733482 18.563471
118.792099 10.33333
118.830261 5.813516
119.012962 13.03786
119.075043 13.29891
119.117393 5.449253
119.133766 3.169118
119.391533 9.25947
119.609657 17.934271
119.647133 6.38033
120.019653 43.893749
120.435661 5.475379
120.940285 3.505208
120.990822 9.645833
121.026749 44.916672
121.074356 2.338542
121.121086 2.14881
121.198235 4.175926
121.618294 5.736111
123.331787 1.679167
123.730049 3.529166
123.935226 5.848333
123.942711 19.369921
123.974434 19.967211
124.944229 6.822387
125.355034 5.6075
126.043266 15.22077
127.05352 26.783331
128.023972 45.440159
128.064743 26.68873
128.22023 2.016667
128.255692 1.666667
128.405609 9.840278
128.452759 3.905357
128.606323 1.208333
129.009949 11.04167
129.033081 974.375488
129.088608 5.934524
129.098221 4.125
129.173874 8.611112
129.223282 17.009451
129.290009 2.355978
129.297913 6.667046
129.345886 3.185606
129.353302 7.145833
129.46611 4.895833
129.511612 9.007773
130.040955 416.281006
130.090286 2.166667
130.321548 3.666667
130.33493 7.351974
130.348419 4.505357
130.384018 3.240036
130.466095 10.46359
130.487381 4.166667
130.497986 3.766667
130.651199 2.14881
130.754028 8.151124
130.881104 3.025
130.88858 8.58188
131.01358 5.787037
131.049088 1749.199951
131.098389 14.21806
131.145401 16.992729
131.192612 2.003788
131.271393 2.747024
131.283386 4.843963
131.295502 1.833333
131.363235 4.166667
131.385056 7.791667
131.42308 4.349116
131.44519 7.074846
131.462845 5.041667
131.507401 5.703947
131.53064 5.568182
131.558548 7.245192
131.586502 7.619048
131.634399 0.836309
131.758163 4.508333
132.01973 173.074799
132.051117 8.222756
132.059082 59.94025
132.271545 5.190373
132.322311 8.000463
132.342285 4.963735
132.372391 2.380952
132.457962 3.011029
133.064224 70.258102
136.094025 6.851351
138.99884 48.26688
139.606659 2.839382
140.409363 2.755208
142.040878 9.346688
142.465622 4.501984
143.048935 38.09668
143.183487 1.870833
143.957153 4.983333
144.063599 28.28039
144.123047 5.049603
144.152283 5.90625
144.193665 27.217199
144.218552 13.06806
144.252518 1.683712
144.342392 4.083333
144.367462 10.93422
144.395508 5.592672
144.420517 10.23611
144.437576 13.77811
144.457367 9.020893
144.474091 1.479167
144.484024 23.537121
144.595383 3.224856
144.626465 4.440834
144.649841 11.29953
144.737411 3.844363
144.772339 6.160088
144.8423 2.900833
144.969284 1.8
145.028183 5846.573242
145.078583 39.532799
145.112808 10.99566
145.127213 3.215278
145.136658 2.629808
145.150681 11.95062
145.229431 48.211071
145.253143 10.01108
145.270203 15.02083
145.278152 4.505357
145.28746 18.828529
145.295395 4.074405
145.308243 10.25694
145.315765 8.503676
145.337326 11.52006
145.356888 6.780093
145.381226 14.37087
145.395493 2.833965
145.420334 21.228701
145.440781 4.726716
145.470337 9.358018
145.487793 7.911526
145.504578 7.001126
145.521362 3.002451
145.537994 4.373611
145.59288 8.189352
145.636383 3.316886
145.672882 11.59134
145.761108 23.06114
145.830383 7.880029
145.869186 11.70708
145.947159 15.97588
146.008972 14.68971
146.035934 5364.39502
146.084808 15.3579
146.104813 33.716869
146.120972 6.229167
146.140182 9.048215
146.152512 10.39454
146.194901 27.453199
146.210938 1.375
146.223526 16.7164
146.260223 22.55121
146.303558 9.372024
146.318069 22.12006
146.337799 5.222222
146.356125 11.1787
146.39978 4.006049
146.451553 8.169444
146.481812 8.400641
146.494797 4.320076
146.539825 12.28598
146.576645 9.167046
146.614578 5.293356
146.628021 3.734722
146.647369 10.6875
146.711594 3.714881
146.749374 2.336806
146.778809 1.886905
146.849609 5.938375
146.905609 4.002315
147.080383 5.166667
147.432892 1.679167
147.559631 3.028846
147.690674 7.342803
148.193817 3.673611
148.888596 7.20376
149.004211 6.843546
149.528778 9.149692
150.035095 12.0
150.143524 3.095238
150.255341 2.027412
152.214752 1.339286
156.02037 41.980129
156.119522 10.19608
156.197784 4.714881
156.233414 11.58997
156.303482 10.51905
156.474411 3.12963
157.027191 334.993591
157.08165 1.837963
157.151428 2.1875
157.195053 2.893939
157.270096 2.880682
157.3694 2.514423
157.666473 10.54047
158.018448 17.721149
158.034714 195.2267
158.184006 2.19391
158.327225 1.347222
158.440582 1.168269
158.497528 4.876736
159.899506 6.384804
160.082581 2.060049
160.208435 3.421875
160.21907 6.307292
160.233536 9.470076
160.254318 8.040441
160.428101 4.815587
160.448105 2.367424
160.500992 2.191468
160.509811 2.673132
160.831711 2.367424
160.937622 3.868421
161.059265 2650.815918
161.114212 18.50124
161.139084 18.434601
161.167877 32.373161
161.182144 6.333333
161.211365 2.670455
161.220856 2.677083
161.237488 4.351852
161.254166 26.03631
161.269852 2.241667
161.281982 0.835648
161.294098 14.11357
161.329895 4.816886
161.341263 3.316886
161.361526 2.173611
161.3862 6.393518
161.409073 6.8075
161.431717 4.375
161.467529 10.00641
161.485367 0.8375
161.514191 2.381944
161.556 7.743421
161.595398 11.34354
161.626282 11.26537
161.640152 8.861936
161.68428 6.188726
161.706467 7.667824
161.887894 4.835526
162.317535 4.585874
162.494888 6.647467
163.654449 8.94233
164.205612 4.740833
170.634369 4.002315
172.053604 16.81605
172.667099 5.506945
172.786407 12.72695
172.923294 4.003788
172.936371 15.24833
172.963608 9.269444
173.023407 87.749298
173.053375 26.99481
173.065125 6.554167
173.07428 20.58098
173.105118 20.32939
173.133774 7.838542
173.152084 2.669643
173.167328 18.26955
173.197861 2.503788
173.207153 9.16702
173.216187 5.480072
173.243378 24.90711
173.268127 17.933981
173.293274 17.88591
173.30777 1.833333
173.339554 20.657021
173.371964 10.59379
173.385635 6.006667
173.399368 5.169271
173.414825 5.469444
173.500427 5.41875
173.513245 11.77632
173.642883 12.28922
173.706436 5.004808
173.72934 15.04191
173.756821 4.040833
173.807327 5.000484
173.816498 8.5
173.849609 11.08004
173.885391 17.03351
173.969589 10.72377
174.031372 21769.699219
174.087173 29.210859
174.10994 12.5026
174.188232 13.5
174.208496 39.26339
174.234253 6.354377
174.249115 11.49236
174.266068 17.38562
174.280426 21.85714
174.304886 32.4753
174.317596 5.391666
174.335678 46.027382
174.369919 26.04748
174.390747 35.75523
174.415237 19.73118
174.436417 17.187531
174.454468 5.990196
174.466248 23.53418
174.480072 26.898029
174.504974 26.90568
174.532471 47.585129
174.560303 13.5193
174.570389 26.235689
174.595001 12.62833
174.619324 19.61796
174.633499 12.46412
174.648056 24.781231
174.675751 16.053329
174.73378 27.693939
174.768021 9.864899
174.795532 2.666667
174.805222 5.394571
174.825378 11.00605
174.854691 4.170833
175.163467 1.504167
175.254684 5.214881
175.278137 8.34
175.399536 15.07777
175.432098 10.58594
175.650574 9.548611
175.711823 6.001984
175.768921 5.166667
175.895889 13.02885
175.951172 5.23852
175.965012 4.356019
176.001938 4.178241
176.071182 2.333333
176.383179 1.895833
176.459152 4.872549
176.625549 5.002315
176.639511 5.521719
176.820145 5.265351
176.889786 9.380908
177.032669 1.540064
177.148392 3.760417
177.214722 10.81341
177.438065 6.087774
178.421082 11.30165
178.842819 4.794271
183.968277 1.333333
184.380585 1.633333
185.023972 67.625488
189.054474 73.671204
189.205048 1.833333
191.836349 3.338542
198.430984 10.04964
200.770325 9.169308
200.923172 5.535904
200.957809 1.361111
200.977463 3.621408
201.010559 55.005959
201.043152 7.892565
201.06221 4.815104
201.401794 2.334936
201.678329 3.426697
201.965469 13.88274
202.026276 1766.092041
202.088623 6.838869
202.105881 1.125
202.169632 6.186432
202.182602 6.899765
202.202393 2.544384
202.221954 15.67927
202.245377 6.316811
202.278397 13.85965
202.324646 10.38914
202.355911 2.068056
202.429459 18.996889
202.475037 9.866987
202.515839 3.168056
202.563995 17.256269
202.637955 3.847222
202.766022 7.726389
202.870773 2.174819
203.153351 3.933333
217.053955 5.666667
242.596603 3.84127
262.337708 2.671875
297.121246 2.176535
536.378784 8.57824
628.474426 3.335938
647.78772 13.81361
785.022949 2.006944
822.179871 3.0
912.285278 3.555556
1099.275879 2.191468
1226.717285 5.194444
1252.439453 2.1125
1347.751831 30.13649
1374.194336 4.629704
