>compound Sorafenib
>formula C21H16ClF3N4O3 
>ionization [M+H]+
>parentmass 465.095062
#inchi InChI=1S/C21H16ClF3N4O3/c1-26-19(30)18-11-15(8-9-27-18)32-14-5-2-12(3-6-14)28-20(31)29-13-4-7-17(22)16(10-13)21(23,24)25/h2-11H,1H3,(H,26,30)(H2,28,29,31)
#inchikey MLDQJTXFUGDVEO
#Ion_Source LC-ESI
#Instrument qTof
#Compound_Source Isolated
#PI Sirenas
#Data_Collector Ed Esquenazi 
#Scan -1
#Precursor_MZ 465.096
#ExactMass 0.0
#Charge 1
#CAS_Number N/A
#Pubmed_ID N/A
#Smiles N/A
#INCHI_AUX N/A
#Library_Class 3
#SpectrumID CCMSLIB00000005684
#IonMode Positive
#UpdateWorkflowName UPDATE-SINGLE-ANNOTATED-BRONZE
#LibraryQualityString Bronze
#TaskID d19310cd93df49b68e9fcbec27720eb5
##Scan# 3
#SpectrumFile Sorafenib.mgf
#LibraryName fda_library.mgf
#MQScore -1
#Organism fda_library
#TIC_Query 0
#RT_Query -1
#MZErrorPPM -1
#SharedPeaks 0
#MassDiff 0
#LibMZ -1
#SpecMZ 465.096
#SpecCharge 0
#internalFilename spec-00000.mgf

>collision 10
102.033943 20.156389
106.028786 31.47368
108.042221 120.006798
108.982735 32.36742
115.059029 51.947788
116.045799 21.125
117.054863 31.33918
118.050652 70.018829
118.062317 46.21212
127.461372 20.77412
128.051559 22.23148
130.067108 96.752953
130.183136 30.26
131.925751 29.816669
132.007828 6.218137
135.05632 20.42857
138.035782 20.650419
139.023468 91.441147
139.611176 4.763889
141.061752 78.495209
141.094772 4.00463
142.066711 27.726299
144.212097 16.370449
148.995819 14.68056
152.046692 67.621803
155.061707 283.734589
155.106003 3.1875
155.173813 6.399193
155.238815 8.671875
155.468124 7.177631
156.046188 164.309692
156.328705 3.002778
157.037781 39.258549
157.073608 136.4133
162.045731 36.066261
166.825439 7.495968
167.038071 27.11574
168.038467 50.144291
169.041321 26.3787
169.057068 11.0
169.075134 18.00658
169.329056 20.04167
170.059586 120.423203
171.088531 97.872047
171.23056 8.748334
171.513 4.362179
172.073807 276.562286
172.119232 2.016667
176.007278 308.702911
176.067047 2.0
176.991989 18.440599
177.234558 13.16667
177.69397 4.520833
178.206177 7.012931
178.578232 24.30637
181.072174 33.599682
182.029999 14.17973
183.053268 80.665947
183.96489 14.15051
184.036301 26.774771
184.067505 49.604172
184.077469 16.334021
184.187805 5.136111
185.070282 475.014313
185.231537 7.041667
185.291153 5.75
185.316162 2.367424
185.342239 9.583333
185.454025 19.11935
185.726395 15.19048
192.029175 6.371212
192.092468 6.710784
192.678741 4.5
193.016449 867.802429
193.07254 3.440476
193.09668 8.671296
193.220856 9.741667
193.265915 3.688725
193.546524 10.34248
193.996902 7.429762
194.156097 9.466666
195.002411 266.38681
195.069229 9.696428
196.012085 215.054001
196.105545 2.003788
197.063644 25.12397
197.076324 15.42691
198.055405 361.65451
198.34848 25.613951
199.084412 44.70219
199.31459 3.066667
199.789871 4.852273
200.24379 13.33772
200.845352 47.074299
200.889206 18.028761
200.90686 2.75
200.992798 24.42415
201.017426 6.013889
201.04567 33.905109
201.118469 45.82793
201.204895 3.055556
201.516022 6.868333
201.58017 11.4662
201.986923 3491.592041
202.075958 37.820808
202.152664 14.93452
202.176407 11.38095
202.193069 18.41667
202.232208 26.99707
202.267258 9.336805
202.287064 12.36333
202.336807 5.939394
202.386032 9.370833
202.456787 33.31002
202.480072 7.001263
202.507294 7.5
202.836655 6.775537
203.059799 20.08824
203.144226 8.388441
203.277908 6.054825
203.59874 9.208333
203.957947 9.388888
204.069275 381.059113
204.251465 18.864071
204.351974 8.307693
205.211899 5.76923
205.715256 12.69231
207.92691 4.673077
208.016754 15.35307
209.787827 7.5625
209.832489 7.782407
209.88588 6.306818
209.959686 7.733334
210.024063 5.025
210.063446 41.74559
210.175339 8.027778
210.402328 2.695513
211.049713 3485.1521
211.109268 24.4478
211.129456 4.00463
211.150116 10.80449
211.192169 2.833333
211.223846 15.01974
211.240723 8.351191
211.266251 9.375
211.293533 9.169444
211.352081 12.46944
211.427963 11.42178
211.456268 45.88266
211.478683 15.68103
211.522247 4.148809
211.569626 5.673077
211.679062 9.493421
211.710617 7.972826
211.752258 12.13776
211.776413 10.79167
211.869125 9.259408
211.923706 15.4697
212.096207 7.005952
212.141815 5.668651
212.344543 10.67302
212.389801 33.46069
212.623672 20.88068
212.719849 8.680555
213.288773 9.429762
217.057205 86.647057
220.984543 77.576813
223.045334 22.891171
223.917023 5.5
224.04982 20.326611
224.079269 25.0375
224.809296 4.107143
225.029404 8.927469
225.066422 344.915405
225.138611 1.777778
225.177124 16.18667
225.332169 5.672619
225.442291 8.037499
225.625412 3.490385
226.097305 1536.482056
226.138779 29.85606
226.196976 6.7
226.284058 6.333333
226.420166 20.368679
226.676727 5.015
226.787048 15.625
227.017624 15.47348
227.078705 30.625
227.704483 2.669444
227.825226 9.833333
229.061249 357.42099
229.387527 19.412251
229.471588 13.04688
230.273499 12.74423
232.550735 40.315689
232.580383 10.75543
237.057098 44.507069
237.525192 6.095238
238.663208 13.58333
239.044922 133.740204
240.31871 12.75
243.081406 63.983761
243.099426 13.76006
244.10849 181.783203
244.160309 3.003788
250.518997 33.038719
250.567352 10.67402
250.600388 5.0625
250.703461 6.083333
250.726486 8.061275
250.743546 10.39919
250.783691 14.16667
250.857208 4.893518
250.892456 6.669445
251.023621 84.438461
251.206757 19.037121
252.025772 144.509003
252.077164 7585.623047
252.149033 31.20607
252.175232 29.42848
252.204086 44.75861
252.227798 23.006821
252.288086 60.50771
252.354843 6.669445
252.371323 6.00119
252.394943 18.41667
252.408554 25.26042
252.435883 30.52626
252.450287 7.336111
252.494385 39.864849
252.543823 11.40653
252.575867 17.30769
252.592773 15.71902
252.610794 21.76046
252.644135 42.75304
252.748383 12.52134
252.780563 46.853889
252.826324 23.92668
252.896347 21.5089
252.957489 9.852273
253.257339 24.521549
253.394913 12.13564
253.505524 4.481482
254.159531 11.335
255.197784 7.375
255.634445 14.83854
255.837433 13.08681
257.052917 52.210201
260.15155 8.081897
268.333832 1.666667
268.693085 5.827381
270.087708 1498.097046
270.160522 2.671296
270.185242 15.38857
270.210052 1.720238
270.236633 9.446428
270.274902 3.736111
270.309937 29.278311
270.417175 10.82353
270.56665 6.033602
270.628815 3.083333
270.679657 23.07271
270.83017 8.523648
270.916107 35.773849
271.028656 52.306671
271.28244 4.44079
271.469299 12.30682
271.781219 8.720239
271.999115 9.130208
272.031952 126.6875
272.229431 3.185606
272.264832 14.11574
272.285034 9.375
272.572418 4.225
274.028259 4.666667
275.06485 40.027779
277.009857 12.04167
278.998291 23.21335
283.068756 21.77519
289.037628 8.625
293.024811 20.842211
294.041931 13.60093
295.265991 4.017857
298.00885 21.885929
309.075836 30.122471
311.043854 31.392651
312.025787 25.890739
319.050598 8.333333
321.087616 17.002871
325.081696 28.718901
327.080292 52.240082
331.026398 38.547329
331.073425 48.49255
331.11792 1.671296
333.968597 2.354167
336.057648 44.346859
339.031433 27.24008
343.940765 6.333333
349.102081 7.06586
350.792755 11.91667
350.867432 10.08333
353.067505 16.94792
353.217773 20.16667
353.472778 3.075
357.662659 17.54427
358.0513 80.98764
359.040253 43.927368
359.118378 16.351851
359.63916 5.678572
361.025726 32.66782
363.045502 32.218239
366.042847 83.947731
366.372803 11.40895
366.433197 8.692307
367.746246 4.669117
367.926422 22.780581
368.56134 6.016666
368.847839 4.09375
368.895996 18.04545
370.078491 285.56131
370.674286 24.300739
371.022827 9.397059
371.087799 231.326202
371.156525 2.0
371.250366 6.668651
371.712769 21.04167
375.223175 4.558333
378.062897 108.190002
383.803101 7.240079
385.020233 34.140789
385.351807 7.779321
385.993835 15.09317
386.050385 1126.831055
386.135376 7.5
386.259796 9.117248
386.375824 13.02222
386.489532 6.428572
386.564636 7.884804
386.696136 4.694444
388.20401 9.001437
389.025757 7.055555
389.41861 14.9481
395.372253 17.03252
403.521027 10.67738
403.549652 5.633333
403.57724 4.531863
403.667786 12.33602
403.702637 3.773809
403.820465 10.55682
404.654785 10.29167
404.983063 24.436359
405.128937 9.714286
405.336578 23.489969
405.928925 9.985399
405.973328 33.810471
406.009216 1.75
406.056946 2185.666992
406.144867 15.04283
406.230042 16.77412
406.252533 20.523809
406.376526 5.813406
406.517578 10.07407
406.547455 14.89048
406.573669 25.093361
406.608826 9.03858
406.748657 19.894661
406.77713 13.59295
407.165009 14.75266
407.247742 25.071011
407.352692 4.666667
407.506134 15.52174
421.709473 10.96014
425.080536 63.094261
425.295959 5.481482
443.997101 9.675
447.084839 536.832825
447.321716 16.296671
447.437622 5.335
447.760437 3.053571
447.805634 10.41565
447.923431 10.00397
448.25473 6.022059
448.41687 13.52447
448.586334 5.357143
448.660004 5.76923
454.097687 12.08333
465.095062 84.359657
465.708344 3.034091
1445.524414 18.065479
