>compound MLS001066403-01!d-Desthiobiotin
>formula C10H18N2O3
>ionization [M+H]+
>parentmass 215.1390188880905
#inchi InChI=1S/C10H18N2O3/c1-7-8(12-10(15)11-7)5-3-2-4-6-9(13)14/h7-8H,2-6H2,1H3,(H,13,14)(H2,11,12,15)/t7-,8+/m0/s1
#inchikey AUTOLBMXDDTRRT
#Ion_Source LC-ESI
#Instrument qTof
#Compound_Source NIH Pharmacologically Active Library
#PI Dorrestein
#Data_Collector VP/LMS
#Scan -1
#Precursor_MZ 215.137
#ExactMass 214.132
#Charge 1
#CAS_Number N/A
#Pubmed_ID N/A
#Smiles C[C@@H]1NC(=O)N[C@@H]1CCCCCC(=O)O
#INCHI_AUX N/A
#Library_Class 3
#SpectrumID CCMSLIB00000085248
#IonMode Positive
#UpdateWorkflowName UPDATE-SINGLE-ANNOTATED-BRONZE
#LibraryQualityString Bronze
#TaskID d252d724072548979f1f6f1ced849daf
##Scan# 1355
#SpectrumFile p3-G06_GG6_01_18299.mzXML
#LibraryName Pharm_Active_Library.mgf
#MQScore -1
#Organism Pharm_Active_Library
#TIC_Query 0
#RT_Query -1
#MZErrorPPM -1
#SharedPeaks 0
#MassDiff 0
#LibMZ -1
#SpecMZ 215.137
#SpecCharge 0
#internalFilename spec-00000.mgf

>collision 10
45.653522 152.0
48.134071 132.0
49.316444 172.0
50.426907 152.0
53.386501 212.0
53.42432 192.0
54.02248 152.0
54.504875 104.0
55.591801 64.0
55.814636 112.0
58.003819 184.0
62.990982 180.0
68.623322 136.0
69.064278 124.0
70.103661 180.0
74.335388 180.0
74.57412 232.0
74.751266 132.0
80.067245 112.0
80.845665 160.0
81.946457 168.0
82.096077 132.0
82.464401 236.0
88.454659 204.0
89.464661 228.0
90.747559 160.0
91.052902 204.0
92.716812 168.0
93.065956 364.0
93.806694 132.0
94.066002 304.0
94.947548 148.0
95.080879 424.0
95.306694 128.0
96.043869 288.0
97.045914 156.0
97.071404 176.0
98.0485 180.0
98.969093 148.0
99.053459 612.0
102.313614 192.0
102.870041 208.0
103.508965 184.0
106.076248 152.0
107.72879 128.0
108.082893 400.0
109.063339 132.0
109.099258 564.0
109.346222 196.0
109.664902 92.0
110.095917 892.0
111.055443 228.0
111.114143 196.0
111.853905 132.0
111.946548 108.0
112.062408 292.0
112.11087 180.0
112.351257 44.0
115.015045 216.0
116.892143 92.0
116.922272 188.0
117.070869 196.0
117.259682 140.0
117.607689 112.0
118.057098 236.0
119.084877 192.0
120.076378 140.0
121.088913 148.0
122.092117 144.0
123.068733 236.0
124.110382 192.0
124.798737 156.0
125.07016 144.0
126.074203 128.0
126.127136 332.0
127.050148 156.0
130.301361 156.0
133.044388 160.0
134.058777 116.0
134.093246 328.0
134.349319 184.0
135.060837 200.0
136.059647 116.0
136.075897 320.0
136.108154 360.0
136.310516 84.0
137.074722 212.0
137.079865 212.0
137.089264 164.0
137.106567 208.0
137.41658 28.0
138.96553 112.0
139.080536 120.0
141.092392 140.0
145.380142 120.0
150.927887 216.0
151.086868 356.0
151.122681 132.0
152.049896 164.0
152.098984 112.0
153.10463 148.0
154.118546 360.0
154.239639 72.0
155.063904 176.0
155.433426 52.0
157.594833 212.0
157.817291 172.0
161.360107 124.0
162.087982 224.0
163.086517 172.0
169.139008 92.0
171.103119 56.0
171.413086 64.0
172.093918 184.0
176.92395 136.0
179.115707 1856.0
179.146835 140.0
179.618683 28.0
180.123657 348.0
194.953888 184.0
196.440765 168.0
197.126205 424.0
198.003311 176.0
198.123764 132.0
198.308716 72.0
198.367569 32.0
200.095383 152.0
215.120712 188.0
218.09697 176.0
238.011673 20.0
423.195801 76.0
713.664856 196.0
1027.667847 172.0
1032.126465 232.0
1110.903931 172.0
1123.697998 108.0
1201.986328 140.0
1242.112061 216.0
1243.908447 236.0
1246.401855 148.0
1263.168213 168.0
1267.80603 104.0
1289.185059 128.0
1292.775146 208.0
1295.53186 172.0
1324.492065 116.0
1365.095947 172.0
1387.11377 184.0
1394.023926 144.0
1404.723511 32.0
1410.847412 148.0
1411.490479 140.0
1413.412964 252.0
1415.681152 220.0
1420.635742 140.0
1429.517212 116.0
1429.735474 124.0
1481.953369 136.0
