>compound 2-[4-[[4-methyl-6-(1-methylbenzimidazol-2-yl)-2-propylbenzimidazol-1-yl]methyl]phenyl]benzoic acid
>formula C33H30N4O2
>ionization [M+H]+
>parentmass 515.245911
#inchi InChI=1S/C33H30N4O2/c1-4-9-30-35-31-21(2)18-24(32-34-27-12-7-8-13-28(27)36(32)3)19-29(31)37(30)20-22-14-16-23(17-15-22)25-10-5-6-11-26(25)33(38)39/h5-8,10-19H,4,9,20H2,1-3H3,(H,38,39)
#inchikey RMMXLENWKUUMAY
#Ion_Source LC-ESI
#Instrument qTof
#Compound_Source Commercial
#PI Dorrestein
#Data_Collector Garg_Neha
#Scan -1
#Precursor_MZ 515.244
#ExactMass 514.237
#Charge 1
#CAS_Number N/A
#Pubmed_ID N/A
#Smiles CCCc1nc2c(C)cc(cc2n1Cc3ccc(cc3)c4ccccc4C(=O)O)c5nc6ccccc6n5C
#INCHI_AUX N/A
#Library_Class 1
#SpectrumID CCMSLIB00000079145
#IonMode Positive
#UpdateWorkflowName UPDATE-SINGLE-ANNOTATED-GOLD
#LibraryQualityString Gold
#TaskID 278b19f5865741e282cec7349aa7e7a1
##Scan# 1204
#SpectrumFile NCP003512_G2_H11_BD7_01_15731.mzXML
#LibraryName NIHcollectionI_05062014.mgf
#MQScore -1
#Organism NIHcollectionI_05062014
#TIC_Query 0
#RT_Query -1
#MZErrorPPM -1
#SharedPeaks 0
#MassDiff 0
#LibMZ -1
#SpecMZ 515.244
#SpecCharge 0
#internalFilename spec-00000.mgf

>collision 10
63.338615 232.0
87.412643 152.0
94.294029 188.0
99.187607 140.0
99.860703 148.0
125.87822 256.0
127.134056 196.0
132.684723 156.0
133.637848 140.0
150.570435 152.0
152.063187 260.0
155.086853 260.0
157.643677 152.0
157.726151 180.0
162.630371 192.0
164.935501 184.0
165.032639 204.0
165.068924 224.0
166.755295 204.0
167.066422 200.0
167.292877 140.0
175.742737 156.0
176.059494 148.0
179.653366 156.0
183.079971 412.0
193.064011 540.0
193.206085 200.0
194.070236 340.0
198.335495 192.0
204.043549 316.0
207.498062 180.0
207.971375 160.0
209.740311 176.0
211.076416 5552.0
211.916382 232.0
212.080017 832.0
213.081543 292.0
215.740555 148.0
216.425156 140.0
217.674271 160.0
220.283707 212.0
220.419617 156.0
222.638367 156.0
230.490005 176.0
238.852829 176.0
243.715805 164.0
244.929077 152.0
245.80513 148.0
253.248459 140.0
261.119141 208.0
262.121704 168.0
263.186127 148.0
264.239777 156.0
265.597107 140.0
266.912384 208.0
272.07785 176.0
272.101257 192.0
272.49173 148.0
275.126923 284.0
275.479736 188.0
275.763916 160.0
276.137207 5968.0
276.591309 176.0
277.140839 1464.0
278.145081 200.0
278.98349 144.0
288.486511 140.0
288.774628 132.0
289.142578 1360.0
289.210388 236.0
290.148987 328.0
291.163269 156.0
294.808441 200.0
301.872803 160.0
302.564819 184.0
303.161469 700.0
304.164368 696.0
304.822754 176.0
305.176849 3940.0
306.178436 744.0
307.178345 264.0
308.127289 240.0
317.17572 704.0
318.179779 232.0
323.66806 188.0
334.786804 168.0
349.731415 152.0
356.218964 152.0
364.154877 220.0
364.800812 140.0
365.725128 144.0
382.9328 140.0
392.530334 176.0
393.137817 188.0
403.84494 200.0
412.231262 188.0
421.573761 184.0
427.104462 140.0
427.174408 140.0
432.671204 200.0
433.124451 168.0
435.378815 148.0
437.366119 180.0
442.197296 120.0
448.385773 196.0
449.832489 156.0
451.958252 144.0
455.186981 164.0
459.491302 156.0
459.947906 228.0
464.894897 128.0
465.63385 140.0
467.184479 304.0
468.196228 372.0
469.196655 220.0
470.441772 148.0
471.16922 120.0
471.260345 132.0
474.752808 140.0
480.245728 148.0
485.197174 232.0
485.327271 148.0
495.223846 176.0
495.579437 204.0
495.960541 160.0
497.154968 376.0
497.234955 22860.0
497.314941 240.0
497.441559 116.0
497.508667 160.0
497.570312 104.0
497.983765 172.0
498.114868 164.0
498.148132 192.0
498.237122 7912.0
499.238556 1252.0
499.317078 240.0
500.231873 188.0
500.275055 128.0
501.209015 224.0
506.122345 152.0
513.059326 260.0
514.0224 120.0
514.167419 148.0
514.44873 256.0
514.767822 152.0
514.822998 280.0
514.879456 112.0
514.943909 212.0
515.101868 208.0
515.245911 63396.0
515.386963 268.0
515.432495 120.0
515.496826 132.0
515.650208 184.0
515.696045 272.0
515.755859 128.0
515.981018 160.0
516.069885 244.0
516.149902 228.0
516.248413 23896.0
516.368958 172.0
516.43573 268.0
516.597656 160.0
516.786926 220.0
517.040833 220.0
517.248047 3844.0
517.590576 120.0
517.645325 144.0
517.911011 140.0
518.206116 112.0
518.251526 612.0
518.527466 216.0
518.780884 180.0
518.985657 112.0
519.115234 176.0
519.163696 112.0
519.217102 152.0
519.26178 164.0
519.503479 164.0
520.301575 140.0
713.928345 140.0
1090.791138 148.0
1836.886719 148.0
