>compound MLS001141329-01!1-[2-(4,8-dimethyl-2-oxochromen-7-yl)oxyacetyl]piperidine-4-carboxylic acid
>formula C19H21NO6
>ionization [M+H]+
>parentmass 360.144257
#inchi InChI=1S/C19H21NO6/c1-11-9-17(22)26-18-12(2)15(4-3-14(11)18)25-10-16(21)20-7-5-13(6-8-20)19(23)24/h3-4,9,13H,5-8,10H2,1-2H3,(H,23,24)
#inchikey SOWJLROCUXZHGD
#Ion_Source LC-ESI
#Instrument qTof
#Compound_Source NIH Natural Product Library
#PI Dorrestein
#Data_Collector VVP/LMS
#Scan -1
#Precursor_MZ 360.145
#ExactMass 359.137
#Charge 1
#CAS_Number N/A
#Pubmed_ID N/A
#Smiles Cc1cc(=O)oc2c(C)c(OCC(=O)N3CCC(CC3)C(=O)O)ccc12
#INCHI_AUX N/A
#Library_Class 1
#SpectrumID CCMSLIB00000080040
#IonMode Positive
#UpdateWorkflowName UPDATE-SINGLE-ANNOTATED-GOLD
#LibraryQualityString Gold
#TaskID b1d8e8f6646f4e71acdff9ca3d919d08
##Scan# 1734
#SpectrumFile p2-D03_GD3_01_18015.mzXML
#LibraryName NIH_Natural_Products_Library.mgf
#MQScore -1
#Organism NIH_Natural_Products_Library
#TIC_Query 0
#RT_Query -1
#MZErrorPPM -1
#SharedPeaks 0
#MassDiff 0
#LibMZ -1
#SpecMZ 360.145
#SpecCharge 0
#internalFilename spec-00000.mgf

>collision 10
95.077759 228.0
95.229187 212.0
95.503242 188.0
95.583 120.0
95.789368 252.0
96.029114 180.0
96.080902 332.0
96.208633 128.0
96.726654 104.0
96.801056 108.0
96.851974 180.0
97.087158 200.0
97.546593 172.0
97.59771 220.0
97.71769 208.0
97.735397 240.0
98.135223 148.0
98.324593 240.0
99.044731 1028.0
99.571854 176.0
100.050156 312.0
100.178505 128.0
100.645187 160.0
100.791 156.0
100.842957 60.0
100.938919 32.0
101.046921 140.0
102.015915 204.0
102.057777 104.0
102.248878 188.0
102.337448 168.0
102.391815 52.0
102.619522 148.0
103.928131 188.0
104.086319 244.0
104.657814 176.0
104.727051 96.0
104.908661 256.0
105.175446 140.0
105.310379 192.0
105.844131 188.0
106.19046 112.0
106.944496 180.0
107.899574 240.0
107.924385 208.0
107.99263 168.0
108.29274 212.0
108.63475 152.0
108.653419 152.0
108.757172 132.0
108.836006 144.0
109.330795 148.0
109.580666 192.0
110.058899 192.0
110.125114 204.0
110.534859 160.0
110.564156 64.0
110.911835 132.0
111.051949 436.0
111.066994 200.0
111.346138 144.0
111.577278 192.0
111.787605 88.0
112.075546 968.0
112.149841 104.0
112.192001 52.0
112.438789 144.0
112.506332 124.0
112.852814 164.0
113.057739 168.0
113.125725 104.0
113.583427 228.0
114.055763 1548.0
114.093925 288.0
114.116463 84.0
114.612381 52.0
114.695496 76.0
114.765846 132.0
114.938614 220.0
114.972763 52.0
115.056892 1004.0
115.420494 136.0
115.470535 72.0
116.058434 196.0
116.400597 156.0
117.070274 1004.0
117.146896 92.0
117.345169 68.0
117.414169 148.0
118.079346 184.0
118.139908 128.0
118.308708 216.0
118.588135 184.0
118.896103 76.0
119.086472 328.0
120.743538 56.0
120.800407 248.0
121.815338 172.0
121.903221 196.0
122.103271 132.0
122.171463 164.0
122.519287 104.0
122.545723 136.0
122.858788 112.0
123.176666 124.0
123.196541 176.0
123.468414 92.0
124.032997 100.0
124.076141 624.0
124.476707 132.0
124.721085 184.0
124.805557 40.0
124.936775 164.0
125.076973 144.0
125.60952 252.0
125.975609 176.0
126.092445 2816.0
126.485443 148.0
126.815544 148.0
127.096123 384.0
127.173561 80.0
127.604858 84.0
127.881546 204.0
128.071671 10952.0
128.11348 152.0
128.183319 84.0
128.282486 68.0
128.363647 64.0
128.426788 28.0
128.474167 132.0
128.611816 88.0
128.740494 48.0
128.769852 76.0
129.07428 1260.0
129.149567 72.0
129.167664 64.0
129.441513 76.0
129.575134 112.0
129.692978 52.0
129.760986 52.0
129.835815 140.0
129.916092 232.0
129.935608 96.0
130.049072 156.0
130.085953 512.0
130.21936 64.0
130.817856 92.0
130.89476 32.0
131.052002 140.0
131.093842 404.0
131.56279 140.0
132.05864 128.0
132.124985 80.0
132.55542 212.0
133.065933 160.0
133.089874 112.0
133.128906 32.0
133.482788 56.0
134.000671 152.0
134.411072 96.0
134.792068 156.0
135.08107 152.0
136.110077 224.0
136.161163 112.0
137.903336 52.0
138.013748 160.0
138.687958 188.0
138.709045 108.0
139.126602 124.0
140.038956 92.0
140.189728 104.0
140.942459 164.0
141.176483 48.0
141.434357 68.0
141.761185 136.0
141.777771 164.0
141.837036 68.0
142.003006 180.0
142.087677 13608.0
142.118027 196.0
142.14296 164.0
142.176193 52.0
142.211792 116.0
142.28537 32.0
142.346069 56.0
142.623672 116.0
142.76059 68.0
142.793884 128.0
142.979446 84.0
143.041336 136.0
143.089767 672.0
143.18895 32.0
143.281845 60.0
143.498718 32.0
143.565491 72.0
143.720535 96.0
143.839859 80.0
144.088211 200.0
144.116882 76.0
144.26268 44.0
144.335297 96.0
144.839355 124.0
144.939972 136.0
145.004684 160.0
145.065521 3212.0
145.405197 44.0
145.443604 144.0
146.065338 892.0
146.272873 164.0
147.081528 680.0
148.076385 160.0
151.64093 160.0
151.913101 92.0
154.660599 196.0
155.423874 40.0
156.066742 204.0
156.821472 48.0
157.067261 184.0
159.102768 224.0
160.045578 96.0
160.564682 136.0
161.060623 664.0
162.068268 892.0
162.431274 72.0
162.771362 128.0
162.997421 120.0
163.071808 300.0
164.075485 132.0
164.464325 92.0
167.0009 200.0
168.044189 208.0
169.613907 228.0
170.078979 956.0
170.39241 64.0
171.08876 708.0
172.097733 348.0
173.064468 476.0
174.065903 204.0
174.461502 136.0
174.927109 120.0
175.006088 208.0
175.076645 2164.0
176.008026 164.0
176.044998 164.0
176.081116 188.0
176.533875 52.0
176.933395 60.0
177.076385 100.0
178.201111 88.0
179.196167 184.0
183.503204 88.0
184.707626 124.0
185.057968 200.0
187.079407 196.0
188.631454 160.0
189.057037 620.0
190.062119 840.0
190.217468 144.0
190.607452 148.0
190.70639 44.0
191.072372 1112.0
191.096878 44.0
191.540085 144.0
192.068802 324.0
193.470322 56.0
197.097076 176.0
200.081268 128.0
201.480072 144.0
202.458725 104.0
202.674011 60.0
202.948944 204.0
202.972626 156.0
203.031174 132.0
203.071228 6460.0
203.192856 60.0
203.258118 56.0
203.314865 68.0
203.496536 64.0
203.701004 52.0
203.76918 36.0
203.891373 36.0
203.985168 92.0
204.073898 1568.0
204.289429 68.0
204.588226 60.0
204.625244 40.0
204.878708 92.0
204.992676 48.0
205.075958 536.0
205.232101 120.0
205.254913 64.0
205.465973 124.0
205.574402 124.0
213.048813 144.0
214.087494 60.0
217.082809 172.0
217.972244 48.0
220.098938 104.0
221.106964 180.0
222.057968 140.0
227.110489 116.0
227.96611 20.0
228.456192 56.0
231.065659 456.0
231.298752 84.0
232.071442 252.0
233.072876 148.0
241.182053 100.0
243.108932 188.0
243.586548 152.0
244.10556 96.0
245.821945 92.0
246.374573 152.0
248.095764 124.0
249.162766 124.0
251.695038 108.0
253.298447 36.0
265.893494 228.0
268.199432 116.0
271.108154 104.0
271.298279 60.0
272.095459 228.0
279.352692 44.0
283.043915 92.0
286.140167 520.0
287.14447 396.0
287.208984 56.0
287.707214 64.0
294.987183 164.0
297.535889 32.0
314.141327 728.0
315.146545 136.0
317.153046 48.0
325.002289 88.0
342.126007 144.0
342.15094 244.0
342.176727 160.0
345.013733 76.0
349.936829 20.0
360.144257 796.0
360.208466 64.0
360.718842 160.0
360.93811 40.0
361.02887 120.0
361.144165 264.0
362.152557 224.0
362.994202 108.0
368.051178 140.0
373.258453 108.0
382.232544 20.0
399.564178 92.0
418.441345 100.0
506.242462 56.0
514.750366 64.0
535.141785 60.0
592.26709 48.0
673.337097 92.0
859.692566 124.0
915.084045 196.0
917.222534 172.0
946.517822 276.0
957.386658 52.0
969.457458 136.0
991.123596 144.0
1003.026306 228.0
1022.604126 148.0
1025.087769 216.0
1025.329956 228.0
1031.949219 160.0
1040.893799 156.0
1042.037109 140.0
1044.061768 160.0
1044.75 160.0
1047.524414 240.0
1053.620483 92.0
1063.222778 168.0
1065.495361 176.0
1071.259033 208.0
1071.75415 140.0
1077.404053 156.0
1089.924316 116.0
1095.042114 156.0
1096.12915 204.0
1110.08313 80.0
1114.530396 60.0
1116.092285 132.0
1121.86438 112.0
1125.440308 116.0
1131.544434 44.0
1138.370117 156.0
1143.943604 228.0
1145.883057 160.0
1148.195068 140.0
1148.802124 44.0
1151.177856 152.0
1154.252319 152.0
1158.509399 208.0
1167.053711 64.0
1170.81665 172.0
1171.416016 172.0
1172.288086 212.0
1175.431519 240.0
1178.504028 204.0
1193.789429 188.0
1195.970337 200.0
1197.051147 152.0
1199.662354 196.0
1202.296997 72.0
1202.386719 176.0
1205.383789 120.0
1216.013672 124.0
1226.585693 68.0
1228.300903 192.0
1236.314575 132.0
1241.288086 168.0
1244.248901 236.0
1261.882812 244.0
1264.818481 212.0
1265.717529 212.0
1266.305298 172.0
1266.864868 84.0
1268.055298 80.0
1286.077759 108.0
1288.134033 180.0
1289.0271 216.0
1297.816772 76.0
1299.947144 132.0
1307.960327 176.0
1311.504028 188.0
1312.679199 164.0
1323.785522 172.0
1325.922607 184.0
1329.011597 184.0
1332.133301 152.0
1337.288452 228.0
1339.98999 124.0
1348.505493 224.0
1357.91333 156.0
1359.446533 144.0
1360.356689 160.0
1365.757324 188.0
1370.549683 172.0
1372.856812 68.0
1377.521362 48.0
1379.959961 180.0
1382.171509 136.0
1384.199585 100.0
1384.903076 120.0
1385.476807 144.0
1391.93335 176.0
1392.00769 184.0
1400.641968 180.0
1405.390625 180.0
1407.084839 148.0
1408.040527 76.0
1415.922974 172.0
1416.005371 188.0
1418.215454 168.0
1420.704956 152.0
1422.385864 188.0
1423.77478 144.0
1426.584839 112.0
1429.442749 192.0
1433.199097 164.0
1443.669434 88.0
1452.667114 160.0
1454.260498 136.0
1454.533691 124.0
1454.59436 56.0
1456.439453 204.0
1463.747803 148.0
1464.86731 148.0
1465.720581 220.0
1466.276855 168.0
1468.457275 148.0
1471.540039 216.0
1472.586182 208.0
1473.082642 88.0
1479.368286 100.0
1479.774048 208.0
1486.864258 140.0
1491.902832 224.0
1493.156128 176.0
1494.856323 144.0
1495.964478 144.0
1498.16687 224.0
1501.458008 148.0
