>compound Agomelatine
>formula C15H17NO2 
>ionization [M+H]+
>parentmass 244.134
#inchi InChI=1S/C15H17NO2/c1-11(17)16-9-8-13-5-3-4-12-6-7-14(18-2)10-15(12)13/h3-7,10H,8-9H2,1-2H3,(H,16,17)
#inchikey YJYPHIXNFHFHND
#Ion_Source LC-ESI
#Instrument qTof
#Compound_Source Isolated
#PI Sirenas
#Data_Collector Ed Esquenazi 
#Scan -1
#Precursor_MZ 244.134
#ExactMass 0.0
#Charge 1
#CAS_Number N/A
#Pubmed_ID N/A
#Smiles N/A
#INCHI_AUX N/A
#Library_Class 3
#SpectrumID CCMSLIB00000006276
#IonMode Positive
#UpdateWorkflowName UPDATE-SINGLE-ANNOTATED-BRONZE
#LibraryQualityString Bronze
#TaskID d19310cd93df49b68e9fcbec27720eb5
##Scan# 2
#SpectrumFile Agomelatine.mgf
#LibraryName fda_library.mgf
#MQScore -1
#Organism fda_library
#TIC_Query 0
#RT_Query -1
#MZErrorPPM -1
#SharedPeaks 0
#MassDiff 0
#LibMZ -1
#SpecMZ 244.134
#SpecCharge 0
#internalFilename spec-00000.mgf

>collision 10
107.045815 18.87421
111.646095 9.171735
112.00042 13.52134
114.046677 13.79356
114.726471 11.78533
115.053719 228.564896
115.139786 6.871212
115.653831 7.113426
117.068886 39.726849
123.003044 63.255379
123.023994 2.34375
123.436356 5.546997
126.763054 6.168651
126.897499 11.85704
127.0541 221.340195
128.061935 158.977295
128.58519 11.23185
129.070068 884.594482
129.123398 16.600281
129.218658 8.428996
129.292496 12.625
129.40094 7.551724
129.983261 10.35238
132.00322 13.84375
134.958511 6.620039
136.78949 17.129709
139.056961 15.54142
139.84433 12.6875
140.944199 1.375
141.06958 750.859924
141.135971 6.258621
141.598511 7.633928
142.077362 888.4245
142.391129 10.17839
142.490875 7.388889
143.048843 49.100121
144.055862 62.182159
144.088074 22.963711
144.360413 6.3075
145.064789 28.43421
147.296875 6.609601
150.948608 21.520531
151.054413 75.12748
151.66243 11.21361
152.062454 686.403687
152.108124 22.22917
152.124405 7.721491
152.187408 8.006945
152.20752 17.30719
152.219589 10.37917
152.227768 9.505051
152.326782 5.829392
152.371399 20.06723
152.391251 6.839506
152.481277 7.020833
152.580307 8.070076
152.636169 10.70516
152.653107 11.5
152.743301 6.718112
152.984818 10.65427
153.033768 8.667338
153.069885 8779.081055
153.121429 52.69249
153.167908 69.196693
153.189163 55.180279
153.218277 22.31777
153.231461 69.21096
153.248383 15.5
153.263306 13.33366
153.2836 20.593269
153.313354 15.24961
153.338196 51.929951
153.364075 13.26962
153.378098 24.438669
153.398651 11.75313
153.409897 14.19686
153.42038 36.050449
153.443954 23.748671
153.471222 13.81297
153.479462 5.734797
153.5065 9.21007
153.518356 14.3555
153.540192 12.37387
153.552689 5.480072
153.56778 19.06501
153.595718 8.348333
153.756851 15.77211
153.79422 14.16898
153.805099 7.961538
153.853836 8.583333
154.010345 32.95528
154.053757 18.45681
154.077652 9021.989258
154.147263 2.14881
154.20076 53.205891
154.245224 25.38751
154.278 8.270885
154.287338 44.022141
154.32254 20.06144
154.35643 49.320019
154.379456 20.953501
154.405731 8.465081
154.458557 19.502439
154.479446 6.85051
154.492981 9.394314
154.53038 10.83869
154.543945 4.150219
154.559708 34.534882
154.595535 10.11566
154.608551 22.393749
154.626968 11.84904
154.645279 6.355053
154.762039 10.87135
154.912964 7.406746
155.030411 35.096458
155.049698 344.920288
155.085358 7229.056152
155.139267 62.69437
155.155884 12.23684
155.185593 44.819241
155.224899 20.98988
155.251144 11.44135
155.260223 5.836742
155.275253 10.46154
155.303574 7.641346
155.342926 15.29954
155.372803 17.307501
155.396591 9.486932
155.407639 4.547348
155.427673 13.28342
155.439087 62.942242
155.459122 9.54023
155.478806 6.821047
155.492752 6.84375
155.520416 4.21875
155.590668 6.889352
155.611404 10.72185
155.745895 6.375
155.827591 8.799603
156.057251 794.050781
156.396332 14.60818
156.420105 10.35006
156.467178 11.84722
156.485046 5.718112
156.532593 6.360119
156.613159 11.07176
156.638733 6.72002
156.724854 10.51673
156.924927 5.862145
156.998993 6.00947
157.06427 888.082825
157.125961 17.51667
157.224548 9.125
157.723129 11.45265
159.0793 41.111019
159.264771 8.677083
160.59053 10.00126
161.123199 6.177296
165.06842 13.00027
166.08194 26.943529
166.46138 4.506667
166.996231 51.557449
167.086426 93.920158
168.053848 9.123292
168.342819 6.578241
168.464737 5.76923
168.586777 6.904762
168.956146 11.4875
169.038681 9.184211
169.064407 854.918518
169.102142 24.846041
169.124771 28.476061
169.170013 8.043403
169.188065 7.214881
169.206161 53.841358
169.252151 19.432119
169.277771 18.538799
169.310669 30.462311
169.334274 13.21212
169.343002 7.64938
169.384109 13.92844
169.410629 13.7631
169.437363 45.379459
169.484344 11.79412
169.527359 2.008333
169.582977 18.29632
169.62262 5.888158
169.654373 3.502193
169.743668 16.966949
169.899094 5.901464
169.9944 6.500379
170.012543 6.175438
170.043396 52.141628
170.07283 18704.380859
170.157715 5.904762
170.297913 14.49487
170.322662 48.170792
170.352921 2.667438
170.369614 8.034663
170.378662 16.490299
170.404968 19.82682
170.424271 32.768452
170.473648 18.30341
170.483688 40.415661
170.517029 14.22876
170.532318 20.523029
170.582382 36.524879
170.610046 14.21644
170.623688 27.65341
170.639984 16.13949
170.675949 11.20591
170.692627 9.969817
170.710526 10.05742
170.728958 8.800595
170.756241 10.21423
170.766739 13.70099
170.781616 18.26573
170.803238 8.523438
170.849594 7.243806
170.89476 10.96491
171.175766 5.677748
171.603882 6.141902
171.91861 10.38292
171.959473 13.16779
172.902893 18.15716
173.095093 29.87258
175.182083 24.583771
175.246902 11.67083
175.519196 18.239771
178.081451 8.0
181.003174 19.510111
181.078339 9.537202
181.215622 7.656609
181.373154 5.854167
182.27861 7.918561
182.557205 10.22259
182.871872 54.992748
183.030609 6.820076
183.066055 24.77984
183.079651 284.623596
183.311951 8.222222
183.732788 3.960938
183.930847 10.17094
183.942505 11.87083
183.953659 25.780581
183.975189 24.496241
184.01239 83.689301
184.020935 107.218697
184.037918 31.938971
184.051025 34.213539
184.071182 93.086746
184.088715 342.895386
184.110626 8.583786
184.121323 60.101269
184.133301 40.80658
184.155182 109.3302
184.167206 16.685711
184.198807 83.133713
184.212936 8.142045
184.232086 92.735069
184.253342 49.572922
184.262878 28.833469
184.286575 80.640808
184.307541 54.628769
184.330185 22.32065
184.347137 15.44371
184.378006 41.334061
184.398438 25.85598
184.423431 22.60778
184.455215 21.42478
184.465942 21.41062
184.478714 18.014811
184.559158 35.281509
184.606537 13.69345
184.626892 25.711241
184.672623 18.834681
184.716736 20.87204
184.808868 29.088869
184.831863 29.666361
184.899872 27.93236
184.924591 15.14368
184.944641 14.11989
184.960861 48.788818
184.989456 21.68528
185.09668 122501.898438
185.17038 12.5641
185.330063 21.346821
185.35849 6.333841
185.405884 18.388639
185.47908 18.481569
185.500839 10.51591
185.512955 30.65843
185.534439 15.96695
185.559814 126.130898
185.589081 34.37199
185.603043 9.56713
185.644424 106.680603
185.664169 30.97349
185.684097 83.933571
185.700119 42.139671
185.722382 14.26968
185.73877 39.609039
185.755951 99.135834
185.785248 39.13657
185.813248 20.536711
185.84259 19.397341
185.865845 49.92889
185.902786 67.829536
185.927216 63.83609
185.977188 28.013439
186.126556 1.168269
186.175461 44.513748
186.189972 28.35738
186.304749 11.96362
186.323212 30.554819
186.390884 10.92683
186.416794 20.70694
186.443588 14.78747
186.464798 10.77475
186.504501 33.79026
186.534897 29.03116
186.574295 10.48771
186.756516 44.95454
186.834167 21.536779
187.112946 6.024802
187.191269 12.37884
187.211349 8.506945
187.301926 6.722222
187.334274 16.77593
187.425293 7.241922
187.555557 12.87845
187.625 5.969477
187.734253 6.574405
187.79187 7.854167
187.956635 6.360119
188.04512 4.604167
188.073105 8.866422
188.18898 7.089863
188.287903 13.70018
188.689011 6.734486
188.832169 5.75511
189.295212 6.727904
189.386734 6.339285
189.583481 8.516204
191.436981 6.755435
191.807938 8.442402
194.073547 21.37048
195.078278 8.222686
197.09697 19.66683
198.780273 8.038129
199.373184 7.556019
201.139557 7.156863
201.393906 9.643283
202.122147 660.771729
202.331863 1.592803
202.394806 17.170139
202.413727 10.15091
202.75412 6.906746
203.173294 5.669643
207.069611 3.846037
208.031647 6.561274
209.094971 17.817261
212.083679 11.88669
213.086319 20.859671
225.896545 6.294769
225.912292 6.865079
226.120148 9.463542
227.104858 253.163101
227.858536 3.878788
244.13916 43.128281
247.831711 11.04412
256.727936 3.539216
542.2276 6.171027
545.286072 14.8109
591.320618 12.69041
732.99762 7.405187
1077.687866 3.833333
1292.810303 7.839336
1325.481201 40.53524
1398.289429 18.8153
1470.535034 5.885057
1612.340942 1.840278
