>compound MLS000863585-01!5,7-dihydroxy-4-(4-methoxyphenyl)-3,4-dihydrochromen-2-one
>formula C16H14O5
>ionization [M+H]+
>parentmass 287.092
#inchi InChI=1S/C16H14O5/c1-20-11-4-2-9(3-5-11)12-8-15(19)21-14-7-10(17)6-13(18)16(12)14/h2-7,12,17-18H,8H2,1H3
#inchikey OKBWVJGQTFYYQA
#Ion_Source LC-ESI
#Instrument qTof
#Compound_Source NIH Natural Product Library
#PI Dorrestein
#Data_Collector VVP/LMS
#Scan -1
#Precursor_MZ 287.092
#ExactMass 286.084
#Charge 1
#CAS_Number N/A
#Pubmed_ID N/A
#Smiles COc1ccc(cc1)C2CC(=O)Oc3cc(O)cc(O)c23
#INCHI_AUX N/A
#Library_Class 1
#SpectrumID CCMSLIB00000079587
#IonMode Positive
#UpdateWorkflowName UPDATE-SINGLE-ANNOTATED-GOLD
#LibraryQualityString Gold
#TaskID b1d8e8f6646f4e71acdff9ca3d919d08
##Scan# 1873
#SpectrumFile p1-E08_GE8_01_17928.mzXML
#LibraryName NIH_Natural_Products_Library.mgf
#MQScore -1
#Organism NIH_Natural_Products_Library
#TIC_Query 0
#RT_Query -1
#MZErrorPPM -1
#SharedPeaks 0
#MassDiff 0
#LibMZ -1
#SpecMZ 287.092
#SpecCharge 0
#internalFilename spec-00000.mgf

>collision 10
95.048653 544.0
95.090965 248.0
95.751984 236.0
96.640167 128.0
97.194672 204.0
99.180603 60.0
100.068588 184.0
100.178116 60.0
101.591446 136.0
101.725899 192.0
102.314911 232.0
107.048988 1104.0
107.12941 156.0
107.642967 80.0
107.781357 116.0
108.052353 176.0
108.632263 160.0
108.733932 212.0
109.851265 196.0
111.003662 124.0
111.045601 316.0
112.193695 172.0
116.526894 200.0
117.034218 160.0
118.85878 100.0
121.211571 148.0
121.428596 260.0
121.839073 176.0
121.995102 232.0
122.973091 248.0
123.043564 4244.0
123.13205 72.0
123.297745 156.0
123.333107 192.0
124.047264 392.0
124.943016 76.0
125.052048 164.0
125.212349 68.0
126.024315 172.0
128.058975 184.0
129.02475 116.0
130.14624 136.0
130.578003 220.0
132.846146 132.0
132.963165 160.0
133.061096 284.0
134.221481 184.0
134.768524 64.0
135.043411 3232.0
135.224075 40.0
136.044281 180.0
139.993744 148.0
143.748718 172.0
145.102493 176.0
145.719299 64.0
146.248337 104.0
147.077484 104.0
147.268234 136.0
149.026947 132.0
150.029648 148.0
151.040741 552.0
151.1409 104.0
151.43956 88.0
152.037781 204.0
153.018524 208.0
156.059265 172.0
157.062866 176.0
159.119873 128.0
159.755692 116.0
160.057709 148.0
161.061844 144.0
162.062653 180.0
163.01619 176.0
171.075912 196.0
171.135788 144.0
171.385834 132.0
171.823853 156.0
172.07962 140.0
172.103119 140.0
173.489731 68.0
176.221512 64.0
177.789093 32.0
178.05191 144.0
178.471756 92.0
178.905426 40.0
179.032791 7072.0
179.115784 56.0
179.161072 76.0
179.488892 48.0
179.606247 76.0
179.66037 248.0
179.841034 36.0
180.03688 1084.0
180.672073 32.0
181.291061 112.0
181.52916 112.0
182.337204 84.0
183.184753 92.0
183.537811 32.0
184.653091 144.0
185.058395 164.0
186.249481 56.0
188.166595 172.0
189.008423 212.0
197.611099 44.0
199.015289 224.0
199.077072 168.0
199.28212 76.0
200.056717 224.0
201.050461 128.0
202.047882 152.0
203.070465 76.0
213.048737 112.0
216.90358 148.0
226.960175 228.0
227.06813 172.0
229.049301 184.0
238.027023 144.0
240.239914 144.0
245.088272 168.0
246.086945 212.0
252.646072 92.0
254.16684 48.0
262.080719 160.0
294.264557 20.0
364.729553 60.0
399.736755 88.0
551.230103 68.0
749.213501 172.0
789.761353 208.0
860.885071 80.0
884.354675 144.0
919.84906 112.0
920.078491 148.0
930.424744 236.0
969.423889 156.0
973.139343 52.0
975.257629 88.0
1041.977783 92.0
1064.201904 84.0
1158.266357 176.0
1187.356201 172.0
1197.817261 152.0
1221.393433 148.0
1235.323486 100.0
1274.146606 160.0
1276.982788 196.0
1282.892822 184.0
1286.402466 136.0
1291.711792 112.0
1316.118042 168.0
1336.812866 132.0
1360.41333 148.0
1360.765747 136.0
1361.140137 124.0
1367.388794 156.0
1384.968262 168.0
1385.812744 136.0
1386.220337 188.0
1414.26001 148.0
1428.509277 220.0
1446.945557 48.0
1452.151367 176.0
1454.776733 88.0
1472.075073 184.0
1473.098511 172.0
1484.44873 148.0
