>compound 5-bromo-N-(4,5-dihydro-1H-imidazol-2-yl)quinoxalin-6-amine
>formula C11H10BrN5 
>ionization [M+H]+
>parentmass 292.02002
#inchi InChI=1S/C11H10BrN5/c12-9-7(17-11-15-5-6-16-11)1-2-8-10(9)14-4-3-13-8/h1-4H,5-6H2,(H2,15,16,17)
#inchikey XYLJNLCSTIOKRM
#Ion_Source LC-ESI
#Instrument qTof
#Compound_Source Commercial
#PI Dorrestein
#Data_Collector Garg_Neha
#Scan -1
#Precursor_MZ 292.021
#ExactMass 291.012
#Charge 1
#CAS_Number N/A
#Pubmed_ID N/A
#Smiles N/A
#INCHI_AUX N/A
#Library_Class 1
#SpectrumID CCMSLIB00000077120
#IonMode Positive
#UpdateWorkflowName UPDATE-SINGLE-ANNOTATED-GOLD
#LibraryQualityString Gold
#TaskID 48f7f52fc6d249b5abbcc6e7b3df5969
##Scan# 971
#SpectrumFile NCP003106_G2_H11_BB5_01_15708.mzXML
#LibraryName NIH_Clinical_Collection_2.mgf
#MQScore -1
#Organism NIHcollection2_04212014_2_mgf
#TIC_Query 0
#RT_Query -1
#MZErrorPPM -1
#SharedPeaks 0
#MassDiff 0
#LibMZ -1
#SpecMZ 292.021
#SpecCharge 0
#internalFilename spec-00000.mgf

>collision 10
46.036564 152.0
48.412155 232.0
49.123791 176.0
50.609352 168.0
61.029354 176.0
68.177444 192.0
71.702576 172.0
73.091217 196.0
73.894859 192.0
75.064583 192.0
82.496208 184.0
90.685593 148.0
91.870239 140.0
97.987564 172.0
99.911934 160.0
103.116325 196.0
111.143204 192.0
116.044823 156.0
117.552658 180.0
119.033302 156.0
125.665825 148.0
125.694832 252.0
126.799561 192.0
127.187584 172.0
127.654892 152.0
128.930847 168.0
131.068497 192.0
132.290375 160.0
135.79747 172.0
136.682571 180.0
142.038498 168.0
143.056854 188.0
144.049179 160.0
144.070007 184.0
146.066757 160.0
147.052246 184.0
147.60788 140.0
151.132492 164.0
156.05484 440.0
158.072113 800.0
159.064957 248.0
159.216782 140.0
160.133224 348.0
163.695496 164.0
165.708252 212.0
168.231171 148.0
170.068314 544.0
171.066727 620.0
172.072067 120.0
173.654007 192.0
173.924255 144.0
183.066101 168.0
183.146194 204.0
184.063766 400.0
184.773972 164.0
185.082703 288.0
186.075089 308.0
187.08075 148.0
194.955002 228.0
195.070984 272.0
196.077347 148.0
197.912643 148.0
207.874054 144.0
208.882492 140.0
208.951523 144.0
211.074753 152.0
212.038361 152.0
212.093475 8508.0
213.096466 2152.0
214.09523 168.0
214.835571 152.0
217.601196 180.0
217.750946 176.0
223.978546 244.0
224.979065 156.0
225.976608 128.0
227.538742 144.0
227.959244 160.0
229.428055 212.0
232.643845 160.0
233.966263 188.0
234.947556 148.0
234.975418 152.0
235.958435 224.0
236.99292 140.0
239.512039 180.0
247.990738 104.0
248.977234 1884.0
249.996918 464.0
250.89621 148.0
250.974716 1612.0
251.915527 192.0
251.997162 760.0
252.917908 140.0
259.130981 140.0
260.539398 144.0
264.994873 184.0
270.053619 144.0
271.016083 172.0
272.505676 144.0
273.933441 168.0
274.991119 372.0
276.989471 292.0
277.986938 172.0
283.40213 324.0
285.251312 172.0
289.482178 168.0
291.192688 180.0
291.684052 172.0
291.956055 144.0
292.02002 33240.0
292.195618 140.0
292.287598 140.0
292.654388 108.0
293.022339 4004.0
293.100677 208.0
293.132263 184.0
293.166626 140.0
293.241425 124.0
293.47818 152.0
293.710083 164.0
293.890228 232.0
294.018158 27520.0
294.132935 208.0
294.182861 212.0
294.754211 172.0
294.881195 200.0
295.01944 2936.0
297.160645 128.0
307.337891 140.0
307.902191 116.0
324.823334 188.0
334.518738 160.0
424.355316 140.0
777.981384 148.0
1145.510132 192.0
