>compound Betapar
>formula C22H28O5 
>ionization [M+H]+
>parentmass 373.2009504480905
#inchi InChI=1S/C22H28O5/c1-12-8-16-15-5-4-13-9-14(24)6-7-20(13,2)19(15)17(25)10-21(16,3)22(12,27)18(26)11-23/h6-7,9,12,15-16,19,23,27H,4-5,8,10-11H2,1-3H3/t12-,15-,16?,19?,20-,21-,22-/m0/s1
#inchikey PIDANAQULIKBQS
#Ion_Source LC-ESI
#Instrument qTof
#Compound_Source Isolated
#PI Sirenas
#Data_Collector Ed Esquenazi 
#Scan -1
#Precursor_MZ 373.164
#ExactMass 0.0
#Charge 1
#CAS_Number N/A
#Pubmed_ID N/A
#Smiles N/A
#INCHI_AUX N/A
#Library_Class 3
#SpectrumID CCMSLIB00000005657
#IonMode Positive
#UpdateWorkflowName UPDATE-SINGLE-ANNOTATED-BRONZE
#LibraryQualityString Bronze
#TaskID d19310cd93df49b68e9fcbec27720eb5
##Scan# 3
#SpectrumFile Betapar.mgf
#LibraryName fda_library.mgf
#MQScore -1
#Organism fda_library
#TIC_Query 0
#RT_Query -1
#MZErrorPPM -1
#SharedPeaks 0
#MassDiff 0
#LibMZ -1
#SpecMZ 373.164
#SpecCharge 0
#internalFilename spec-00000.mgf

>collision 10
105.069618 37.025002
105.603264 12.0125
106.063332 76.075256
109.027138 50.765629
115.052124 83.256248
117.066917 10.0744
120.993828 65.117653
121.062431 101.219597
121.179031 20.78241
121.265106 13.625
123.004997 62.033329
124.048721 25.54006
127.054863 33.440479
131.085724 113.611298
132.057678 150.331406
133.097931 76.740257
135.078735 63.05444
141.078522 34.833328
144.567673 28.364861
145.065491 88.592613
146.280945 27.44907
146.426392 12.02778
146.451431 20.673611
147.042114 21.125
147.080032 308.403412
147.414566 12.6025
153.054092 58.56794
157.098999 43.224998
158.070709 99.139343
159.0802 195.459595
159.393677 13.80625
161.057648 42.273651
161.093582 150.958298
161.124771 10.625
170.073288 40.87672
171.079712 161.952805
171.114685 93.952904
173.056458 56.361698
173.094437 51.02618
173.481659 20.140091
173.644424 18.11128
179.083069 106.894501
181.058365 77.420776
183.074524 30.5
187.070633 88.65522
187.112823 104.370499
196.088196 91.691406
196.701416 14.25762
197.097198 61.335621
198.105103 79.269157
207.492462 30.23558
207.516922 10.60227
211.113724 16.3225
211.839005 30.519779
212.115799 12.77841
212.690521 17.226851
217.096924 52.060501
221.09079 84.731979
222.414978 20.023809
227.081818 17.516069
229.100082 32.84483
233.09816 34.715561
237.123306 97.429169
239.138489 104.854202
239.574387 15.02083
243.678421 14.13281
245.087952 35.006939
247.073257 52.523548
247.331787 45.389999
248.119904 42.95863
248.782028 16.55357
249.12854 47.1875
263.142853 42.577881
264.146973 138.969193
267.134003 17.52083
269.095337 31.124041
309.139862 19.328409
309.420532 22.71607
