>compound Mureidomycin A
>formula C38H48N8O12S 
>ionization [M+H]+
>parentmass 841.3185164280904
#inchi InChI=1S/C38H48N8O12S/c1-20(44(2)32(51)26(39)16-21-6-4-8-23(47)14-21)31(40)34(53)46(19-25-18-29(49)35(58-25)45-12-10-30(50)43-38(45)57)33(52)27(11-13-59-3)41-37(56)42-28(36(54)55)17-22-7-5-9-24(48)15-22/h4-10,12,14-15,19-20,26-29,31,35,47-49H,11,13,16-18,39-40H2,1-3H3,(H,54,55)(H2,41,42,56)(H,43,50,57)/b25-19+/t20?,26-,27-,28?,29?,31?,35?/m0/s1
#inchikey HWCWBPUPNDMKIV
#Ion_Source LC-ESI
#Instrument LTQ-FTICR
#Compound_Source Isolated
#PI Dorrestein
#Data_Collector Peng
#Scan -1
#Precursor_MZ 841.0
#ExactMass 840.311
#Charge 1
#CAS_Number N/A
#Pubmed_ID ChemSpider ID:?23118231
#Smiles N/A
#INCHI_AUX N/A
#Library_Class 2
#SpectrumID CCMSLIB00000075010
#IonMode Positive
#UpdateWorkflowName UPDATE-SINGLE-ANNOTATED-SILVER
#LibraryQualityString Silver
#TaskID 57d156df513b468a82f4fc631178998b
##Scan# 1
#SpectrumFile 1503_841.mzXML
#LibraryName gnps_library.mgf
#MQScore -1
#Organism compounds from Streptomyces roseosporus
#TIC_Query 0
#RT_Query -1
#MZErrorPPM -1
#SharedPeaks 0
#MassDiff 0
#LibMZ -1
#SpecMZ 841
#SpecCharge 0
#internalFilename spec-00000.mgf

>collision 10
256.483826 0.201627
261.910248 0.224157
264.265808 0.250696
264.937714 0.90634
270.983398 0.553373
276.168854 1.293135
276.994354 0.389549
277.963043 0.919729
281.395447 0.388459
290.223236 0.328504
292.359955 0.223769
297.898499 0.794837
300.227844 0.701552
304.421326 0.447726
306.269836 0.759838
309.076721 1.289003
310.146973 1.755441
311.21994 1.084121
317.189758 1.364977
318.055603 0.17596
321.118469 5.22203
323.226654 0.296651
332.266052 2.966752
334.171326 0.715663
336.109497 0.51355
337.2901 2.213584
339.02533 15.184591
340.003937 0.31893
342.206421 0.299075
347.364044 0.186914
350.174988 1.28254
351.160828 0.880602
355.399384 1.281506
356.414734 0.783291
365.394958 0.394555
370.011902 0.448567
370.920715 0.410839
372.62085 0.565837
373.489136 1.478839
374.759521 1.266048
376.369324 1.199118
378.086975 1.020902
387.251831 0.402031
388.866394 0.477788
391.122009 0.447306
394.208069 5.746322
395.271973 0.681564
396.087158 5.057253
397.116516 0.807735
399.323547 0.566481
404.200714 1.526819
405.106689 0.909727
409.177979 1.714856
410.253143 0.538512
414.27417 0.20549
415.235962 0.71271
416.739563 0.456586
418.036133 2.900645
420.285919 1.904064
422.10144 18.618856
423.235962 2.027338
426.187073 1.327665
428.244934 1.643722
429.390472 0.426683
432.107452 0.672772
434.071869 0.178627
435.086975 8.620927
437.345886 0.868079
438.255127 0.265788
440.009521 0.462425
441.792786 1.532072
445.256592 0.496216
446.137695 2.991941
447.412354 5.2803
448.407043 2.391442
449.255127 1.140486
450.312012 1.588189
452.62384 2.2865
453.39447 3.16595
454.291138 0.889083
456.435852 1.310437
457.12088 0.510576
458.074036 0.331496
466.372864 1.536484
467.236938 0.60828
469.316101 0.432875
469.987793 0.562404
471.091248 1.934474
471.911072 0.28908
473.179138 0.634212
475.296326 4.335912
479.111328 0.144985
482.192963 0.942756
484.277588 0.150352
485.278809 6.228563
486.12381 2.264691
492.6922 1.446724
494.170319 1.488168
496.006958 0.276919
497.298981 3.802784
498.58493 0.865526
499.579346 0.834744
503.079498 12.337872
504.213867 1.731503
505.421631 1.555397
506.353668 0.227933
509.272247 0.375574
512.021851 3.098334
512.644653 0.380741
513.356567 0.530935
516.281982 2.483701
517.336304 1.355378
518.180786 0.517277
519.165771 0.822351
521.356262 0.574741
522.19519 0.726263
524.296387 0.693408
528.22876 0.571562
530.089111 20.447544
531.265869 2.825742
532.31958 0.733311
533.189697 0.927171
536.622559 0.928586
540.077271 2.017907
544.661499 0.215171
546.03064 2.07138
548.200928 0.905742
549.070435 3.29761
552.170166 0.65022
555.222168 0.229298
556.916199 1.033182
558.173218 7.044262
563.226074 1.046773
566.237183 0.198687
567.318359 0.815871
568.974731 0.689464
570.424438 1.661209
572.024841 0.188874
573.329712 0.994846
575.962524 0.920924
577.19165 1.03072
577.844177 0.163083
581.133911 2.27545
585.114807 0.141167
587.254639 15.444844
588.177002 5.378367
589.47644 0.561536
590.218506 0.701662
591.318298 0.37921
594.086182 6.591094
595.246216 5.654754
596.069824 1.567356
597.140259 5.261611
598.196228 3.159321
598.80072 1.828972
599.41748 1.13071
602.015747 13.774845
603.074707 4.219679
603.88623 6.83627
605.50293 1.678081
606.965027 0.629369
609.20752 5.677823
610.203979 0.959646
613.300293 2.571282
614.252136 1.064963
616.131348 28.388889
617.176208 6.378001
619.41687 1.203443
621.284058 0.588637
622.824097 2.230812
623.815796 2.729272
625.259277 0.522138
627.94751 3.331801
628.922729 1.561892
629.950439 1.31696
634.197754 56.915398
635.17395 6.396326
638.363403 0.391982
642.126526 46.660351
643.223877 13.125814
643.858521 1.294187
644.708496 0.4489
645.902344 1.222471
647.035156 4.122741
647.966919 3.544542
649.584412 2.840925
650.255615 0.924013
655.124695 0.339908
656.161865 1.018132
657.976074 1.843474
660.084229 132.179214
661.376221 16.399073
662.289001 0.12507
663.609314 2.496899
665.633545 3.998317
666.429688 0.80009
669.862793 0.743856
671.539429 1.579875
672.584106 0.843717
674.238342 2.512064
674.904175 0.662498
676.081543 1.532786
676.946045 3.382116
678.427979 8.223969
679.501831 1.573176
680.533081 1.263056
682.230652 1.288355
685.301636 0.889
686.465088 2.848738
688.313232 0.684129
688.977661 2.111603
689.781311 1.776187
691.729187 1.030038
693.022217 7.609645
693.631104 2.350044
694.302979 0.103553
696.448608 1.75291
698.29541 0.94285
698.970337 0.664184
700.269409 0.445578
701.313843 0.910537
703.165771 1.227217
704.259827 3.818239
704.996948 0.594261
705.959717 0.283896
707.621338 3.466983
709.055664 15.459807
710.196167 3.703184
711.282349 25.246149
712.301331 6.475599
713.023926 0.730304
717.84491 0.188696
718.577148 0.660888
720.459839 6.405067
721.135254 66.466843
722.149414 22.046085
722.960083 2.060425
723.866211 1.484012
725.72644 0.20775
727.187561 12.652232
728.374268 1.823469
729.427795 0.819826
732.316162 3.933525
733.064087 4.743157
733.894897 0.629401
734.843506 0.806356
737.495239 1.405692
738.634521 0.72524
739.71936 0.874735
741.125854 0.666136
747.872681 1.178797
748.839111 0.254218
749.971191 3.434378
750.873169 5.840055
751.776245 1.248038
753.129761 2.55929
754.24707 0.427532
754.880493 3.19988
757.080933 3.083522
758.405396 1.190115
759.667358 1.417615
761.18335 0.511881
762.182617 0.336976
764.356934 3.175497
765.042114 4.982106
767.072388 0.998115
769.199707 3.022539
770.281982 0.597672
771.131592 0.78871
772.729126 1.092236
774.27124 1.344517
775.685181 1.426162
776.631226 0.728539
777.279053 1.61801
778.048706 2.05018
778.72229 0.184889
779.349487 0.823317
780.366211 1.97413
781.27478 3.932637
782.812744 3.674808
784.496704 1.151306
785.85144 2.546415
787.219238 3.905071
788.326782 2.133538
792.854614 1.689135
793.965332 12.965771
795.009644 9.023381
796.130859 3.692539
797.091187 4.619345
797.771606 0.628257
798.498413 0.382653
801.86853 0.344419
803.075806 3.490677
804.211792 2.856227
805.134521 4.32093
806.323486 1.630488
807.588745 1.553502
809.023438 1.117617
810.138428 0.248954
810.761108 1.075198
812.964722 2.647596
814.099487 2.566006
814.792236 0.769415
815.614014 0.460006
817.108521 4.448473
818.063232 2.484478
819.282715 4.907837
821.172485 5.632278
822.054565 22.264687
823.182495 81.146088
824.29187 18.516741
825.294556 1.374766
827.768799 4.982685
829.055054 2.690172
830.85437 5.448423
831.81189 1.612697
835.998291 0.38683
840.401733 2.779732
841.433472 2.457276
843.203369 1.983167
843.884888 1.263647
849.099976 1.272723
859.128296 0.519445
869.321411 1.015299
916.316772 1.783581
925.753296 0.617126
939.298584 0.788477
990.275269 1.16961
1078.365845 1.546283
1081.730591 1.851215
1085.268555 0.384804
1099.834595 0.438995
1102.750977 0.70679
1124.164795 0.374091
1195.859741 1.218089
1279.499268 1.034413
1369.018799 0.635867
1416.464111 1.673848
