>compound MLS002154056-01!Dioxybenzone131-53-3
>formula C14H12O4
>ionization [M+H]+
>parentmass 245.08083531609054
#inchi InChI=1S/C14H12O4/c1-18-9-6-7-11(13(16)8-9)14(17)10-4-2-3-5-12(10)15/h2-8,15-16H,1H3
#inchikey MEZZCSHVIGVWFI
#Ion_Source LC-ESI
#Instrument qTof
#Compound_Source NIH Pharmacologically Active Library
#PI Dorrestein
#Data_Collector VP/LMS
#Scan -1
#Precursor_MZ 245.086
#ExactMass 244.074
#Charge 1
#CAS_Number N/A
#Pubmed_ID N/A
#Smiles COc1ccc(C(=O)c2ccccc2O)c(O)c1
#INCHI_AUX N/A
#Library_Class 1
#SpectrumID CCMSLIB00000085563
#IonMode Positive
#UpdateWorkflowName UPDATE-SINGLE-ANNOTATED-GOLD
#LibraryQualityString Gold
#TaskID d252d724072548979f1f6f1ced849daf
##Scan# 2114
#SpectrumFile p4-C08_GC8_01_18356.mzXML
#LibraryName Pharm_Active_Library.mgf
#MQScore -1
#Organism Pharm_Active_Library
#TIC_Query 0
#RT_Query -1
#MZErrorPPM -1
#SharedPeaks 0
#MassDiff 0
#LibMZ -1
#SpecMZ 245.086
#SpecCharge 0
#internalFilename spec-00000.mgf

>collision 10
45.462006 188.0
45.518387 40.0
46.646526 160.0
47.689465 44.0
48.101307 176.0
48.402699 168.0
48.862114 148.0
49.195187 140.0
50.056049 204.0
51.143341 172.0
51.584099 172.0
51.69566 184.0
52.670437 128.0
53.963833 156.0
54.133568 148.0
54.275703 176.0
54.80043 144.0
54.897713 88.0
55.641975 212.0
55.905064 176.0
55.978008 104.0
56.124035 124.0
56.630638 64.0
56.843517 228.0
57.139515 184.0
58.522877 224.0
58.798786 104.0
59.965927 152.0
60.126324 60.0
61.513943 140.0
61.868797 160.0
62.314198 172.0
62.657173 144.0
62.791157 160.0
64.202637 96.0
64.276016 180.0
64.563553 152.0
65.14859 148.0
65.436462 172.0
65.455788 212.0
66.04808 152.0
67.821281 164.0
67.896706 212.0
67.973801 96.0
68.559227 188.0
68.628456 84.0
68.663086 52.0
69.619637 164.0
70.040421 184.0
70.556061 56.0
70.649712 156.0
70.686516 152.0
71.96904 180.0
72.454445 196.0
72.848015 60.0
73.606377 176.0
73.780182 124.0
77.277405 220.0
79.086472 228.0
79.787155 80.0
80.235786 160.0
80.326736 156.0
80.823395 204.0
82.122238 112.0
83.12085 172.0
84.319115 152.0
86.158455 152.0
86.36364 120.0
86.824806 120.0
87.216553 140.0
90.121361 124.0
91.969147 188.0
92.672882 132.0
93.035072 616.0
93.37738 104.0
93.590988 132.0
93.843391 32.0
94.037666 208.0
95.05072 988.0
95.066414 252.0
95.306648 76.0
95.717064 188.0
96.053413 168.0
96.208389 56.0
96.292351 160.0
98.075844 176.0
98.87178 160.0
100.577072 172.0
100.740814 192.0
101.457237 52.0
102.552757 164.0
103.055237 192.0
103.524513 176.0
104.999924 196.0
106.064178 348.0
106.159462 120.0
106.253815 140.0
106.576157 172.0
106.66452 152.0
107.395485 180.0
107.599777 204.0
108.020859 1240.0
108.054451 40.0
108.344292 188.0
108.456184 164.0
109.022781 156.0
109.353455 152.0
109.590324 208.0
109.99334 52.0
110.043442 168.0
110.327568 228.0
111.044357 200.0
111.154877 232.0
111.41732 212.0
112.328842 152.0
114.680351 40.0
114.923454 168.0
115.327065 216.0
115.611511 40.0
115.703545 128.0
116.628098 232.0
116.752792 96.0
116.950729 140.0
117.03038 176.0
117.407471 204.0
117.949394 212.0
118.020737 244.0
118.217575 276.0
118.592247 220.0
119.011742 128.0
119.345528 72.0
119.560883 168.0
120.076134 140.0
120.336884 128.0
120.636177 116.0
120.804565 108.0
120.84613 144.0
120.944603 140.0
121.029007 9680.0
121.094154 132.0
121.114517 100.0
121.128532 128.0
121.146057 56.0
121.185493 108.0
121.238083 60.0
121.264381 112.0
121.316986 56.0
121.343292 88.0
121.553856 72.0
121.595551 56.0
121.632866 56.0
121.667992 136.0
121.927177 204.0
121.953552 196.0
122.032425 744.0
122.096458 60.0
122.254852 108.0
122.281258 152.0
122.316475 84.0
122.477219 68.0
122.554321 156.0
122.675537 124.0
122.889458 60.0
123.006416 140.0
123.042229 456.0
123.143318 52.0
124.050514 108.0
124.523125 228.0
125.924019 92.0
126.053589 100.0
126.554634 92.0
126.81897 100.0
128.061905 500.0
128.616119 84.0
130.03978 164.0
131.051727 200.0
131.580856 256.0
131.882385 200.0
132.26207 172.0
132.961121 196.0
134.090332 216.0
136.017014 356.0
136.286407 32.0
137.429626 144.0
137.49263 208.0
138.973862 108.0
139.053314 212.0
141.06517 124.0
143.045914 144.0
146.805145 128.0
147.391724 232.0
148.110245 128.0
148.175644 180.0
149.117157 168.0
150.872177 96.0
150.918625 56.0
150.947968 120.0
150.996872 164.0
151.039658 8400.0
151.128967 48.0
151.255005 96.0
151.283157 104.0
151.319473 48.0
151.430618 72.0
151.716751 88.0
151.809937 48.0
152.03978 1020.0
152.197632 64.0
153.04277 188.0
155.022018 88.0
155.051758 204.0
156.063629 204.0
156.173965 44.0
157.504974 148.0
158.097519 172.0
159.107635 136.0
163.139618 168.0
164.586731 72.0
167.041931 216.0
168.057129 184.0
169.069901 136.0
170.387115 136.0
171.076263 176.0
171.19603 92.0
174.075165 140.0
174.18811 96.0
176.137344 180.0
177.142517 148.0
183.047516 168.0
184.052032 228.0
184.512863 124.0
185.053955 180.0
186.124954 192.0
187.095566 212.0
189.156601 160.0
198.009003 132.0
200.044678 140.0
200.117874 136.0
204.150085 140.0
205.058243 160.0
213.043381 212.0
226.993652 68.0
227.071625 188.0
243.161392 168.0
245.070709 112.0
246.218643 128.0
248.241119 220.0
280.832092 160.0
569.13147 60.0
597.645691 20.0
626.184387 72.0
674.066528 64.0
680.904663 220.0
688.168823 64.0
717.60553 156.0
768.823853 152.0
910.286499 204.0
919.852661 136.0
924.766785 80.0
953.186218 152.0
953.4505 88.0
1002.877136 212.0
1010.347351 172.0
1016.911987 180.0
1027.972778 220.0
1058.992798 204.0
1081.494995 196.0
1090.322876 188.0
1102.019287 168.0
1102.144775 144.0
1107.264893 104.0
1107.940552 44.0
1123.029907 216.0
1127.416138 104.0
1130.01062 212.0
1135.087646 192.0
1137.449219 188.0
1161.152344 152.0
1166.305542 140.0
1168.848999 232.0
1200.269531 208.0
1223.772461 216.0
1228.169678 160.0
1229.313843 196.0
1237.211914 128.0
1255.402954 188.0
1263.05188 184.0
1263.589478 148.0
1279.073975 128.0
1283.562378 216.0
1291.303467 128.0
1293.779297 212.0
1318.74707 196.0
1327.804443 172.0
1327.913208 104.0
1342.712646 192.0
1346.172607 152.0
1347.238892 72.0
1347.721191 144.0
1353.067505 124.0
1356.342041 128.0
1359.297607 84.0
1373.673706 92.0
1376.662842 84.0
1377.866821 136.0
1381.119385 180.0
1382.606567 212.0
1388.177368 84.0
1394.257324 160.0
1394.985718 76.0
1395.937378 144.0
1400.119629 140.0
1401.62439 216.0
1402.719971 196.0
1404.837769 160.0
1419.789429 92.0
1428.524658 156.0
1431.015747 244.0
1431.26416 112.0
1431.934448 188.0
1436.668091 196.0
1442.800171 132.0
1445.243164 156.0
1445.477661 152.0
1448.066772 136.0
1451.947021 128.0
1460.118774 64.0
1462.249023 228.0
1463.901001 96.0
1465.485352 168.0
1466.910522 168.0
1471.54126 116.0
1472.679077 180.0
1485.24707 68.0
1493.872314 152.0
1494.989014 240.0
1495.458496 160.0
1495.8125 192.0
1503.120117 204.0
1504.508057 56.0
1505.272339 200.0
