>compound 3-(1H-imidazol-5-yl)propyl N'-[(4-chlorophenyl)methyl]carbamimidothioate
>formula C14H17ClN4S
>ionization [M+H]+
>parentmass 309.093353
#inchi InChI=1S/C14H17ClN4S/c15-12-5-3-11(4-6-12)8-18-14(16)20-7-1-2-13-9-17-10-19-13/h3-6,9-10H,1-2,7-8H2,(H2,16,18)(H,17,19)
#inchikey UCAIEVHKDLMIFL
#Ion_Source LC-ESI
#Instrument qTof
#Compound_Source Commercial
#PI Dorrestein
#Data_Collector Garg_Neha
#Scan -1
#Precursor_MZ 309.094
#ExactMass 308.086
#Charge 1
#CAS_Number N/A
#Pubmed_ID N/A
#Smiles Clc1ccc(CNC(=N)SCCCc2c[nH]cn2)cc1
#INCHI_AUX N/A
#Library_Class 1
#SpectrumID CCMSLIB00000079216
#IonMode Positive
#UpdateWorkflowName UPDATE-SINGLE-ANNOTATED-GOLD
#LibraryQualityString Gold
#TaskID 278b19f5865741e282cec7349aa7e7a1
##Scan# 1001
#SpectrumFile NCP003672_A27B27C27D27_BE4_01_15740.mzXML
#LibraryName NIHcollectionI_05062014.mgf
#MQScore -1
#Organism NIHcollectionI_05062014
#TIC_Query 0
#RT_Query -1
#MZErrorPPM -1
#SharedPeaks 0
#MassDiff 0
#LibMZ -1
#SpecMZ 309.094
#SpecCharge 0
#internalFilename spec-00000.mgf

>collision 10
47.280304 176.0
48.461815 228.0
51.506519 144.0
53.643715 140.0
53.656837 212.0
60.577469 144.0
63.512066 252.0
64.552055 228.0
71.607918 160.0
74.800659 180.0
78.001495 140.0
80.857231 156.0
81.043465 152.0
82.846931 312.0
87.043663 172.0
99.56366 152.0
102.300987 224.0
106.065201 200.0
108.970901 152.0
109.076584 10476.0
110.078293 1192.0
110.840057 112.0
125.023544 172.0
127.011566 192.0
130.70816 140.0
141.048019 848.0
142.060089 144.0
143.04248 132.0
143.063782 208.0
163.547134 180.0
168.058823 964.0
169.065659 200.0
181.701859 168.0
209.07724 164.0
213.657715 144.0
217.195282 172.0
257.811554 180.0
265.058533 144.0
265.898438 168.0
266.720154 228.0
275.673584 196.0
276.163605 204.0
298.171967 336.0
307.16333 172.0
309.093353 3588.0
309.17865 156.0
310.102264 148.0
311.090668 1404.0
311.260376 152.0
312.079071 152.0
1185.216675 184.0
1335.314697 168.0
1345.194946 208.0
1436.631226 204.0
1506.00708 200.0
1530.832397 180.0
1550.989258 160.0
1597.866333 156.0
1622.568481 156.0
1730.020752 184.0
1763.885864 184.0
1828.399902 184.0
1853.629272 232.0
1858.268066 184.0
1881.738525 152.0
1918.71521 180.0
1969.251221 156.0
