>compound Eplerenone
>formula C24H30O6 
>ionization [M+H]+
>parentmass 415.210876
#inchi InChI=1S/C24H30O6/c1-21-7-4-14(25)10-13(21)11-15(20(27)28-3)19-16-5-8-23(9-6-18(26)30-23)22(16,2)12-17-24(19,21)29-17/h10,15-17,19H,4-9,11-12H2,1-3H3/t15-,16+,17-,19+,21+,22+,23-,24-/m1/s1
#inchikey JUKPWJGBANNWMW
#Ion_Source LC-ESI
#Instrument qTof
#Compound_Source Isolated
#PI Sirenas
#Data_Collector Ed Esquenazi 
#Scan -1
#Precursor_MZ 415.212
#ExactMass 0.0
#Charge 1
#CAS_Number N/A
#Pubmed_ID N/A
#Smiles N/A
#INCHI_AUX N/A
#Library_Class 3
#SpectrumID CCMSLIB00000004470
#IonMode Positive
#UpdateWorkflowName UPDATE-SINGLE-ANNOTATED-BRONZE
#LibraryQualityString Bronze
#TaskID d19310cd93df49b68e9fcbec27720eb5
##Scan# 2
#SpectrumFile Eplerenone.mgf
#LibraryName fda_library.mgf
#MQScore -1
#Organism fda_library
#TIC_Query 0
#RT_Query -1
#MZErrorPPM -1
#SharedPeaks 0
#MassDiff 0
#LibMZ -1
#SpecMZ 415.212
#SpecCharge 0
#internalFilename spec-00000.mgf

>collision 10
105.068359 162.6138
107.048553 201.964798
107.085663 109.087997
109.064919 50.30838
111.043518 663.003479
113.057335 33.905022
115.054604 17.929171
117.067909 104.683098
119.084991 222.050201
120.995148 27.533819
121.064743 3414.955078
121.098946 73.98278
121.109932 37.595581
125.020203 24.053869
125.060059 38.825008
127.051773 22.45891
127.05835 20.115931
127.074173 50.471191
128.063248 19.020439
129.068802 16.648411
131.047226 96.440979
131.086395 119.181396
133.064911 20.086451
133.099686 64.71431
135.079742 293.173096
137.094467 36.117779
139.074875 42.719299
143.084457 328.066315
145.063217 93.999527
147.043411 51.57476
147.07962 328.759399
148.043854 22.79509
149.057541 83.582657
149.093414 81.027428
151.075638 59.421452
153.089417 134.674194
154.004105 32.749531
156.610245 40.740971
157.061798 30.81147
157.100082 223.477005
159.079865 272.9375
159.116867 77.485222
161.05809 84.427567
161.095093 368.001312
161.758087 34.29417
162.176025 18.65341
162.195602 21.338751
162.28479 27.20216
162.314972 18.038639
162.335083 29.248131
162.380066 21.28228
163.04744 71.111214
163.075378 16524.990234
163.190689 18.08853
163.200043 16.75444
163.216248 26.881109
163.232742 30.318069
163.250351 49.87299
163.268661 55.374111
163.303894 34.939709
163.320831 19.66708
163.397659 30.470131
163.412567 17.655331
163.433975 19.18541
163.45343 18.079969
163.507187 27.18222
163.57724 37.770168
163.628525 20.77496
163.670563 21.76922
163.711868 18.28677
163.859238 18.896721
165.067551 30.29924
167.068512 33.903919
167.083786 17.30278
169.100937 59.0602
171.079971 630.800415
173.095337 137.779297
175.071411 17.80401
175.112152 293.847595
177.090988 130.619598
179.069687 26.89057
179.084 29.79631
179.103607 75.406487
181.06633 42.83017
181.099579 245.544205
183.076721 40.20388
183.114883 254.606003
185.057159 23.05411
185.09549 361.782501
185.129288 18.39761
187.073196 58.826809
187.112427 45.380718
189.091217 286.929199
191.069687 145.666702
191.104202 52.955051
193.089005 73.55043
193.124634 41.774559
195.074768 35.801769
195.104111 541.874023
197.097702 142.564896
197.130157 38.955551
199.074692 55.740639
199.111069 161.242401
201.089935 93.817688
201.127518 168.758698
203.106339 1102.531006
203.413849 16.99667
204.090622 22.05868
205.087051 236.716095
205.118805 53.833698
206.110901 37.75703
207.09758 27.62981
207.132095 19.676189
209.09549 151.113098
209.125565 37.452122
211.108887 145.864395
211.147385 38.103241
213.092148 51.090721
213.126892 130.305405
213.165405 18.395929
215.067627 64.595207
215.103287 28.5937
217.085037 48.12434
217.098969 22.00231
217.119415 191.192795
219.095642 45.227169
219.134811 212.479004
221.090744 54.022301
221.117386 1856.141968
221.270752 17.960039
221.381943 17.190121
221.436539 16.53145
223.150192 43.669159
225.084061 26.533609
225.125595 109.962097
227.106705 75.953163
227.141342 39.700642
229.084061 108.713799
229.120056 54.71965
229.153 17.394581
231.1026 266.525085
233.130432 82.136169
235.109924 54.840179
235.146698 107.9254
237.125839 270.763885
239.109756 70.554497
239.142868 707.150818
241.121658 128.099197
241.156281 28.549601
243.104797 49.742802
245.117294 95.55307
245.145126 19.00036
247.105545 84.931831
247.1521 80.86396
249.090042 60.261761
249.125183 128.153702
249.162674 73.281082
249.952286 31.507351
251.108215 93.466087
251.139999 73.904617
253.12088 34.377941
253.156158 32.145908
255.09996 31.74962
255.134293 160.1465
257.1138 39.886189
257.150055 62.88694
258.135437 34.22591
259.094269 26.40271
259.143433 170.946304
261.125275 57.08997
261.160095 24.313339
263.141479 73.478653
265.125214 81.744652
265.158112 67.192421
267.10791 25.150709
267.138885 300.311493
267.172607 16.561991
267.457153 17.8155
269.117126 50.306412
269.15329 48.445179
271.106323 23.50029
271.131165 40.11689
271.154388 44.47356
271.172821 47.07436
273.124969 24.220011
273.147827 59.89856
273.167847 70.278473
275.142151 170.177094
277.120331 72.5065
277.157501 559.961914
277.971802 36.533329
279.136627 186.316605
279.170746 27.130211
281.147034 47.580849
283.129395 138.948303
283.155579 193.528107
285.186523 27.139799
286.133972 23.810699
287.130707 40.333931
287.16214 61.69334
291.134399 87.463348
291.173248 386.7388
291.318237 20.12011
291.39035 26.28476
293.11261 33.33934
293.155701 113.157097
293.192383 31.54686
295.129761 75.48922
295.168518 626.907776
297.146027 275.741608
299.162598 453.794586
299.815918 22.010349
301.157654 662.770325
302.156952 60.965698
303.133789 91.379761
303.17804 24.142651
305.152771 182.977493
307.174255 47.317631
309.146942 56.615089
309.186249 474.891815
311.125763 32.514679
311.162048 156.738205
311.197571 167.812393
311.581818 30.83984
313.139343 17.075609
313.179688 100.804703
317.146423 18.14892
317.171478 27.92058
319.168213 2016.645996
319.539062 36.90797
319.58902 25.438971
319.763306 20.45805
321.14743 132.197296
323.163391 277.366302
325.140228 44.752232
326.190155 18.355829
327.19458 113.760696
329.152588 306.015686
333.164917 25.5079
333.185974 23.976419
335.164398 124.286903
335.197479 18.66703
337.179718 3453.974121
337.260681 26.464439
337.312897 37.840561
337.522766 20.97056
337.560303 19.237801
339.159058 85.662193
341.175537 125.6782
347.00769 19.3936
347.106049 26.84478
347.164978 642.683594
351.195984 183.241592
353.171509 76.717659
355.11377 19.099529
355.149475 24.21314
355.190216 2042.823975
355.419373 20.779169
356.541931 18.039391
357.170776 393.8349
361.175446 105.348198
365.174194 916.34082
365.80722 21.743851
369.20694 270.771301
371.180176 74.840027
373.198181 186.721405
379.188324 607.087524
383.184753 1068.151001
387.191376 42.928711
397.200256 1355.848022
397.625214 21.412161
412.711029 20.502041
413.713715 36.756088
415.210876 2776.768066
415.302032 20.02273
415.412262 21.59651
415.451752 35.865139
415.569855 21.08276
415.636688 20.59691
415.781738 20.04915
