>compound Ritonavir
>formula C37H48N6O5S2 
>ionization [M+H]+
>parentmass 721.322
#inchi InChI=1S/C37H48N6O5S2/c1-24(2)33(42-36(46)43(5)20-29-22-49-35(40-29)25(3)4)34(45)39-28(16-26-12-8-6-9-13-26)18-32(44)31(17-27-14-10-7-11-15-27)41-37(47)48-21-30-19-38-23-50-30/h6-15,19,22-25,28,31-33,44H,16-18,20-21H2,1-5H3,(H,39,45)(H,41,47)(H,42,46)/t28-,31-,32-,33-/m0/s1
#inchikey NCDNCNXCDXHOMX
#Ion_Source LC-ESI
#Instrument qTof
#Compound_Source Isolated
#PI Sirenas
#Data_Collector Ed Esquenazi 
#Scan -1
#Precursor_MZ 721.322
#ExactMass 0.0
#Charge 1
#CAS_Number N/A
#Pubmed_ID N/A
#Smiles N/A
#INCHI_AUX N/A
#Library_Class 3
#SpectrumID CCMSLIB00000005593
#IonMode Positive
#UpdateWorkflowName UPDATE-SINGLE-ANNOTATED-BRONZE
#LibraryQualityString Bronze
#TaskID d19310cd93df49b68e9fcbec27720eb5
##Scan# 1
#SpectrumFile Ritonavir.mgf
#LibraryName fda_library.mgf
#MQScore -1
#Organism fda_library
#TIC_Query 0
#RT_Query -1
#MZErrorPPM -1
#SharedPeaks 0
#MassDiff 0
#LibMZ -1
#SpecMZ 721.322
#SpecCharge 0
#internalFilename spec-00000.mgf

>collision 10
105.07103 27.223061
109.570625 15.90032
111.029541 12.86694
117.070366 21.341921
117.242592 8.360577
117.24926 6.914216
117.328094 28.317341
117.484818 5.527412
120.080482 89.012413
139.217041 6.606061
139.466629 5.215278
140.052582 1565.214966
140.100235 13.08437
140.161896 11.38478
140.188293 7.729167
140.229095 10.12591
140.284714 11.00926
140.30896 17.070391
140.464417 8.611112
141.189819 6.334635
141.425537 8.5
143.077164 7.252541
143.19368 7.014493
146.100464 24.173611
154.469421 31.047409
155.084564 10.32292
159.107422 16.684059
169.079239 86.004646
169.631607 3.442935
170.041763 16.00231
170.106781 6.297619
170.131851 14.47963
170.18663 37.239498
170.208328 12.95583
170.225906 2.02381
170.234756 11.67708
170.266159 6.972826
170.279312 24.747931
170.326141 12.8912
170.422836 8.333333
170.448624 8.432099
170.561966 2.506944
170.59848 10.50208
170.721024 10.84083
170.752258 11.77214
170.87561 6.166667
171.094955 12073.049805
171.154251 1.260417
171.227448 17.879169
171.238281 40.41927
171.258347 55.332939
171.276382 11.02961
171.299683 10.72043
171.328339 41.868591
171.361984 50.73904
171.391998 26.2087
171.426178 21.09091
171.45433 8.204301
171.470398 15.03859
171.489166 6.912817
171.542557 23.67564
171.578217 23.813391
171.659592 10.01322
171.71756 4.351852
171.836548 6.395102
171.968185 16.12591
172.306534 9.33932
172.635483 5.352083
172.905502 8.126302
176.104904 25.80015
176.275253 12.21007
179.159256 5.217803
184.204742 8.4375
193.844772 7.445216
195.991119 6.252604
196.073776 8.770833
196.208313 7.8
196.924545 3.420139
197.074051 1584.956055
197.249069 9.608989
197.29097 6.578526
197.325089 8.167298
197.424362 19.383551
197.466934 4.398438
197.516724 11.23483
207.98175 6.682449
211.129379 10.03191
211.332413 11.28305
215.08165 41.124359
217.076797 20.150591
229.091446 14.13194
233.130569 15.7014
237.045013 31.759489
245.127869 11.75174
250.159683 177.303299
259.136597 13.88003
263.777252 13.68376
265.163757 7.847222
266.157104 27.26338
266.263428 8.387061
266.330139 9.081317
266.449158 9.095239
266.515717 19.47337
266.552002 14.94963
266.568787 10.52519
266.583099 13.17279
266.605255 21.072889
266.682556 27.358841
266.828125 12.25444
266.969269 4.713362
267.021271 16.39716
267.574188 5.518641
267.733673 26.471001
267.772797 9.051471
267.895874 18.41824
268.095245 233.895401
268.147736 9883.079102
268.219299 2.540064
268.300781 19.76964
268.319916 28.73785
268.349304 11.74048
268.368286 22.14296
268.382477 14.36607
268.419067 58.105289
268.438477 43.444221
268.481964 7.765914
268.519287 37.443062
268.544495 7.521719
268.562073 23.5562
268.647705 15.54573
268.668549 31.01071
268.759644 14.4424
268.790375 18.588091
268.809631 27.193661
268.87262 24.04678
269.00647 9.204291
269.035248 20.76289
269.069305 6.173611
269.09201 11.50189
269.205994 10.6819
270.011963 9.580106
270.177856 6.673611
271.13913 13.00962
271.454071 6.0375
274.996826 7.010212
275.117065 6.576389
277.86261 9.425926
278.148926 33.715279
287.610474 10.13706
292.13562 7.169741
292.987793 16.439569
293.296173 12.0155
294.150848 41.352299
294.178558 30.984171
294.195312 12.13021
294.21579 8.213663
294.245605 20.538879
294.268768 49.86998
294.293213 113.608299
294.322968 81.177132
294.35675 95.716766
294.385864 52.51738
294.425781 40.598961
294.441345 64.166656
294.457367 5.648438
294.478851 47.018101
294.498657 83.704948
294.525452 20.1075
294.556061 92.449799
294.608917 81.533737
294.630249 39.67757
294.664459 73.484222
294.687714 53.625179
294.74469 51.193111
294.942291 34.394569
295.020081 50.859341
295.13678 8.356884
295.223938 8.000595
295.398895 34.086021
295.570618 2.841486
295.726624 19.007851
295.761841 7.813406
295.780487 15.38697
295.86676 64.193588
295.90152 56.945221
295.971466 4.009804
296.05838 24.98974
296.092621 135.252502
296.143433 76287.90625
296.288544 32.6157
296.350128 17.85141
296.482269 13.81492
296.538391 11.948
296.628265 19.05102
296.677643 30.303181
296.702057 84.67421
296.751404 77.816841
296.771149 11.00231
296.786987 41.089668
296.811249 96.693703
296.83963 107.1549
296.883148 114.931702
296.931946 57.208981
296.949646 28.436331
296.990021 80.797653
297.054047 46.32021
297.111176 64.107887
297.236603 31.25536
297.266632 21.10018
297.285522 63.43404
297.333282 19.910971
297.391266 35.063202
297.418884 34.775311
297.456635 31.15942
297.566498 4.566667
297.640533 27.532709
297.674438 30.481079
297.720428 12.28614
297.76825 25.413469
298.02121 62.049751
298.093964 6.408245
298.503418 1.168269
298.53949 3.677083
298.558472 8.6875
298.584534 11.7468
298.820465 6.407738
299.122742 16.40205
299.320496 5.908333
299.344635 1.52381
299.693817 6.411574
299.790192 5.169271
299.86972 11.27811
299.885986 13.54583
300.135834 5.460227
300.356659 5.364015
300.403046 7.167298
300.509644 6.713362
300.706482 10.03706
300.893097 7.748547
301.757446 8.386968
301.950317 7.841667
302.144012 6.826923
302.912628 16.845461
306.518707 7.136143
307.750763 6.406746
311.177765 97.889603
311.515381 6.547619
321.179718 0.840278
323.172974 7.21875
335.109985 36.76833
337.614716 3.2075
339.171204 18.506941
342.12558 15.44444
347.160492 109.113503
349.219696 13.18794
364.187012 10.18056
365.169128 196.399307
365.355042 5.001603
375.211945 21.116541
382.197723 116.530502
389.12265 3.170833
391.136658 23.42667
392.232147 62.396561
393.140869 73.284401
393.267639 15.6413
393.595367 11.57212
396.805542 9.564015
406.7276 0.833333
408.132019 10.84131
408.17157 105.198097
408.225006 6.818182
409.148621 25.099211
409.264343 9.359375
411.231506 17.92691
418.14798 10.81391
418.21582 11.50694
420.224213 5.667658
421.272125 5.906703
422.2453 11.99664
423.325745 7.291667
423.425598 41.378071
423.460541 12.73045
423.487488 23.8424
423.519104 8.380682
423.56134 39.040741
423.614746 31.01663
423.640198 36.028511
423.67218 11.68525
423.701202 46.488651
423.749634 22.74008
423.784088 22.840139
423.808258 12.17917
423.840698 34.503101
423.897644 20.93631
424.091644 20.0613
424.358795 16.65383
424.514679 6.640351
425.038147 12.36589
425.121094 9.818561
425.147186 9.982142
425.227203 8.319592
425.442047 6.482143
425.4823 13.31051
425.562408 7.83869
425.647888 13.83496
425.835083 7.081317
426.089691 23.281071
426.118317 20.965639
426.185455 22127.109375
426.273376 6.788074
426.327057 11.69147
426.375305 12.35604
426.457977 7.000719
426.501923 7.511574
426.534821 37.59861
426.575317 32.462238
426.604858 21.392731
426.633698 106.367699
426.660004 44.951618
426.699188 32.254131
426.717773 22.030371
426.762878 59.828041
426.793091 95.167709
426.817841 24.587
426.844055 34.37598
426.900238 8.902712
426.927277 27.284149
426.972961 61.702389
427.009521 19.29394
427.038147 67.372566
427.092102 56.604012
427.247375 45.845058
427.369904 7.171474
427.399719 25.381531
427.452301 28.562929
427.560242 14.30174
427.875885 7.214881
428.223114 8.0625
428.427063 10.20376
428.618713 17.626829
428.67804 10.21488
429.065552 5.630952
429.496368 7.135803
429.849365 11.40083
430.785126 11.8346
431.012024 4.844363
431.32196 6.411574
431.408691 10.94654
431.449097 1.335648
432.508331 6.153409
434.384735 11.79693
436.214813 23.95365
445.675171 7.520833
446.2164 7.171027
451.35379 8.027244
460.202026 15.63946
470.492126 7.574167
475.862183 6.74074
489.236053 54.432919
490.214325 5.913377
504.744965 8.753925
507.241272 592.56311
507.42215 14.96346
507.530884 6.845238
507.945892 3.008929
508.105408 4.200833
508.827393 8.691053
529.864441 5.282609
531.27478 5.880682
533.220093 341.429413
533.571411 6.435467
548.051941 6.493351
551.058411 10.3532
551.232117 1054.936035
551.298035 6.000534
551.365173 5.55787
551.681885 7.415
551.732483 15.27595
551.832397 8.265625
554.155396 8.726808
555.469666 6.129704
562.324341 13.42009
565.223572 8.632184
576.259888 9.895833
602.465149 13.18063
602.506775 5.423611
606.3078 249.843704
607.203979 6.173077
608.267456 6.10947
643.927551 2.860119
650.468201 4.288075
673.796082 8.333333
674.996582 7.908245
675.075317 25.04443
677.330078 433.023285
677.448608 4.175
678.090942 4.005952
678.147766 16.009781
678.239868 6.053728
678.55365 5.25
678.680664 12.39873
698.676758 6.906746
703.177551 6.095238
703.310364 856.239929
703.398987 3.016667
703.786377 10.83838
703.970947 8.296474
704.165466 11.07576
704.248108 9.519048
705.023804 3.581317
709.038452 6.180147
709.659302 7.248333
711.230103 5.647059
711.483093 3.6
713.036621 8.166667
714.356384 5.681159
714.662903 6.530935
715.196228 11.82966
715.323914 6.588644
716.170471 20.603689
716.352417 35.753799
716.404663 232.337097
716.457397 136.266296
716.513 370.791199
716.575012 207.037994
716.607117 88.34211
716.645142 212.794907
716.704163 221.885803
716.785156 210.339905
716.836304 137.177795
717.177124 104.677696
717.261719 146.661194
717.876831 7.005357
717.931702 79.247169
717.994568 106.222
718.081787 74.75808
718.11261 47.103901
718.216675 5.120039
718.328735 40.646851
718.398865 65.009613
718.548462 7.547111
718.654663 46.147671
718.983887 29.30636
719.214844 30.3286
719.312378 91.231628
719.407471 38.814011
719.540466 20.035179
719.606384 16.60751
719.87561 40.276718
720.045288 47.113491
720.340332 116526.796875
720.495361 18.871651
720.913879 128.203995
721.01062 9.500365
721.126587 422.930115
721.201538 103.321198
721.253113 107.377098
721.46875 7.693348
721.571228 4.500631
721.829956 77.308487
721.945068 4.043269
721.987305 24.43074
722.081482 27.99795
722.151367 214.223007
722.324158 12783.540039
722.369507 2.760417
722.467102 73.565331
722.528259 142.898193
722.587646 73.429123
722.702209 206.5298
722.782288 154.686996
722.838562 240.031097
722.941223 75.071327
723.062134 91.71862
723.182617 97.722862
723.266907 159.5383
723.371643 84.489166
723.656372 5.340833
723.983154 85.193153
724.30719 14.27928
724.436035 39.905529
724.538818 55.86681
724.605896 70.446907
724.684448 52.727421
725.051514 18.506941
725.315369 21.78739
725.37854 5.175
725.410278 7.780093
725.471313 41.993698
725.743103 12.80857
725.867981 22.24869
725.907532 46.754711
726.047119 22.811781
726.740173 25.66223
726.840393 8.906667
726.997437 28.83523
727.104675 6.336871
727.272278 13.46071
727.714661 8.765931
727.815613 12.75521
728.080933 13.2
728.127319 12.74263
728.165039 6.109011
728.239014 10.03704
728.794189 6.001894
729.171265 18.45611
729.32959 20.34708
730.148132 7.38587
730.472656 5.1
732.50885 6.695833
733.073669 2.5
733.252747 6.382761
733.818481 9.734722
734.656799 6.874492
735.137573 12.50777
735.468079 6.0
735.739441 8.1875
737.433533 6.778241
738.669922 7.847757
738.972412 12.83772
742.85614 2.214015
746.063904 10.39105
752.357422 9.833635
755.893066 9.04529
759.339417 8.653846
765.939575 6.843962
771.457764 11.08676
776.091614 12.38194
1090.40271 0.833333
1144.509644 5.336309
1144.544678 3.109601
1194.18457 8.201755
1194.619019 10.60093
1435.026855 6.886905
