>compound MLS000859930-01!O6-Benzylguanine
>formula C12H11N5O
>ionization [M+H]+
>parentmass 242.105
#inchi InChI=1S/C12H11N5O/c13-12-16-10-9(14-7-15-10)11(17-12)18-6-8-4-2-1-3-5-8/h1-5,7H,6H2,(H3,13,14,15,16,17)
#inchikey KRWMERLEINMZFT
#Ion_Source LC-ESI
#Instrument qTof
#Compound_Source NIH Pharmacologically Active Library
#PI Dorrestein
#Data_Collector VP/LMS
#Scan -1
#Precursor_MZ 242.105
#ExactMass 241.096
#Charge 1
#CAS_Number N/A
#Pubmed_ID N/A
#Smiles Nc1nc(OCc2ccccc2)c3[nH]cnc3n1
#INCHI_AUX N/A
#Library_Class 1
#SpectrumID CCMSLIB00000084960
#IonMode Positive
#UpdateWorkflowName UPDATE-SINGLE-ANNOTATED-GOLD
#LibraryQualityString Gold
#TaskID d252d724072548979f1f6f1ced849daf
##Scan# 1377
#SpectrumFile p3-D03_GD3_01_18260.mzXML
#LibraryName Pharm_Active_Library.mgf
#MQScore -1
#Organism Pharm_Active_Library
#TIC_Query 0
#RT_Query -1
#MZErrorPPM -1
#SharedPeaks 0
#MassDiff 0
#LibMZ -1
#SpecMZ 242.105
#SpecCharge 0
#internalFilename spec-00000.mgf

>collision 10
44.922783 144.0
45.21006 140.0
46.396805 172.0
46.41172 176.0
46.554207 100.0
46.713238 180.0
47.100384 204.0
47.124977 148.0
47.290451 116.0
48.225788 176.0
48.321209 280.0
48.758022 200.0
48.970898 132.0
49.096336 192.0
49.124233 172.0
49.606701 168.0
49.702076 36.0
50.022526 172.0
50.231087 220.0
50.325645 112.0
50.344006 144.0
50.362366 216.0
50.382141 176.0
50.527763 200.0
50.762901 192.0
51.37167 164.0
52.208176 208.0
52.866039 236.0
53.08334 184.0
53.36359 172.0
54.25639 168.0
54.747925 148.0
55.61731 116.0
55.917557 232.0
56.054573 40.0
56.242493 196.0
57.049931 56.0
57.271137 68.0
57.450527 232.0
57.580341 212.0
57.616596 160.0
57.667976 232.0
58.799526 216.0
58.976704 124.0
59.966732 68.0
60.068504 136.0
60.694889 176.0
61.137627 64.0
61.483612 184.0
61.663219 128.0
62.034199 144.0
62.063988 144.0
62.351269 132.0
62.812614 140.0
62.899406 116.0
62.962563 192.0
63.066845 124.0
63.329506 172.0
63.66098 208.0
64.076141 56.0
64.147858 168.0
64.622192 84.0
65.040474 148.0
66.753105 140.0
67.374115 136.0
67.606308 168.0
67.657051 212.0
67.943855 176.0
68.048897 144.0
68.989647 208.0
69.395271 176.0
70.758186 172.0
70.969299 188.0
71.189125 160.0
71.231117 148.0
71.427795 140.0
72.15126 208.0
72.300117 156.0
72.327194 60.0
73.080711 176.0
73.458939 168.0
73.600594 172.0
73.691124 164.0
74.273193 228.0
74.448257 272.0
75.121262 164.0
75.781693 84.0
75.930779 168.0
76.090424 156.0
76.290215 172.0
76.641792 176.0
76.887672 164.0
77.025612 160.0
77.315857 104.0
78.320168 188.0
78.586372 160.0
78.70816 196.0
78.921967 204.0
79.185654 164.0
79.24411 204.0
79.924164 180.0
80.487228 168.0
80.605331 28.0
81.951126 116.0
82.129601 80.0
82.201767 204.0
83.151894 176.0
83.248116 92.0
83.992516 156.0
84.107475 200.0
84.151291 124.0
84.418076 140.0
84.859375 116.0
85.00428 140.0
85.575943 132.0
85.999947 96.0
86.079338 200.0
86.199409 120.0
86.3806 200.0
87.075691 60.0
87.228058 188.0
87.87616 140.0
87.991875 188.0
88.133827 208.0
88.313301 140.0
89.220909 256.0
89.425949 156.0
89.731125 64.0
89.778267 172.0
90.250359 164.0
90.307091 192.0
90.414932 220.0
90.556931 188.0
90.856438 216.0
90.928551 52.0
90.983597 160.0
91.027267 128.0
91.054596 14512.0
91.109573 144.0
91.15834 132.0
91.382721 84.0
91.451225 40.0
91.49501 68.0
91.624519 52.0
91.666435 48.0
92.05732 2240.0
92.099525 28.0
92.131996 48.0
92.160652 224.0
92.321228 48.0
92.696442 136.0
92.790367 68.0
92.81337 88.0
92.861313 76.0
93.059296 120.0
93.838211 112.0
94.259003 80.0
95.653496 176.0
96.917107 140.0
97.873695 92.0
98.127876 132.0
98.451485 44.0
98.473213 92.0
99.013153 68.0
101.546371 76.0
101.586494 220.0
102.336136 68.0
102.583939 80.0
103.036003 220.0
103.056206 236.0
108.386902 144.0
108.679268 128.0
108.714546 104.0
109.051003 152.0
110.036331 200.0
113.103569 64.0
116.043221 320.0
117.049118 156.0
118.066772 604.0
118.897461 148.0
119.032059 120.0
120.07666 172.0
121.050423 780.0
122.037865 624.0
123.837357 116.0
124.032349 128.0
125.156502 204.0
126.404305 100.0
128.047989 476.0
128.871017 64.0
129.04924 164.0
130.030457 108.0
130.064438 184.0
131.060623 88.0
131.578369 84.0
134.706284 44.0
135.034515 352.0
139.065399 172.0
140.298019 76.0
143.055573 136.0
144.054764 128.0
145.074402 588.0
145.215698 60.0
145.270859 76.0
145.321243 68.0
146.056641 320.0
147.092514 220.0
150.22052 56.0
152.077759 132.0
153.0439 104.0
154.923416 220.0
155.059814 828.0
155.136536 32.0
155.454025 132.0
156.069138 204.0
157.063431 452.0
157.173523 44.0
161.444092 124.0
164.06398 200.0
165.02446 144.0
165.044907 132.0
165.160004 144.0
169.060486 124.0
170.068253 304.0
170.43486 208.0
170.614197 32.0
171.055283 212.0
171.611359 136.0
171.992233 120.0
172.05751 96.0
172.086975 2220.0
172.211578 52.0
172.344803 44.0
173.091904 268.0
174.101013 196.0
181.964951 180.0
182.070633 664.0
183.049149 168.0
183.075363 344.0
188.720444 176.0
192.068176 76.0
192.943573 144.0
194.772568 116.0
195.058777 156.0
196.26149 60.0
197.08551 192.0
197.716888 156.0
197.823257 92.0
198.013657 156.0
198.063797 1256.0
198.98671 52.0
199.009171 196.0
199.064926 112.0
199.097839 1304.0
199.135544 92.0
199.787674 224.0
199.928375 80.0
200.096756 220.0
200.198624 92.0
200.6241 104.0
201.623306 136.0
202.503204 60.0
202.914093 76.0
203.674637 48.0
204.004272 92.0
211.911331 88.0
223.070251 212.0
225.072128 704.0
225.511505 88.0
226.083679 152.0
227.089401 136.0
227.905945 112.0
230.929642 136.0
243.093307 148.0
341.139496 52.0
354.839264 132.0
359.235626 140.0
362.707001 44.0
413.228882 44.0
440.371887 92.0
473.388184 76.0
612.495728 40.0
711.157043 52.0
722.502075 92.0
730.721375 144.0
744.93988 124.0
754.74469 216.0
759.437988 172.0
780.579468 68.0
781.130066 148.0
782.45459 156.0
794.335693 216.0
821.655151 204.0
833.070679 192.0
838.606201 188.0
840.786316 92.0
849.19281 152.0
849.900574 204.0
849.98761 176.0
854.24054 212.0
856.737915 160.0
858.299927 152.0
859.904236 128.0
861.469116 204.0
861.545044 204.0
862.544312 156.0
870.465454 196.0
872.469055 104.0
877.697388 172.0
878.40509 28.0
878.552551 248.0
879.130798 168.0
880.996643 64.0
892.072571 100.0
895.827576 232.0
897.979431 120.0
903.385193 84.0
907.565613 168.0
918.830933 160.0
921.958801 196.0
923.415833 156.0
924.577454 148.0
936.026672 160.0
940.12323 88.0
940.684753 172.0
941.802185 176.0
942.810303 144.0
942.883606 144.0
944.283691 240.0
950.777954 220.0
951.686462 176.0
954.008789 140.0
959.2229 72.0
959.346191 152.0
959.605103 96.0
963.0177 124.0
964.846802 176.0
965.013733 196.0
971.039124 228.0
971.28717 188.0
973.813477 156.0
977.30719 212.0
978.253174 72.0
979.461243 88.0
980.950562 180.0
981.343323 168.0
985.768921 192.0
988.827026 140.0
994.424011 240.0
994.486755 224.0
1002.37323 160.0
1003.76001 124.0
1004.056396 220.0
1004.316101 204.0
1007.43335 148.0
1012.430237 200.0
1012.56958 116.0
1013.950745 240.0
1014.11554 216.0
1014.781128 160.0
1015.326477 176.0
1015.599182 192.0
1019.955078 168.0
1023.613342 248.0
1027.105957 236.0
1028.452271 260.0
1029.141724 212.0
1031.754883 160.0
1035.709595 132.0
1036.138794 200.0
1038.395264 108.0
1040.352295 192.0
1041.296265 108.0
1041.842163 152.0
1042.523315 40.0
1046.408447 176.0
1051.817261 212.0
1052.146484 180.0
1052.901978 200.0
1056.24353 132.0
1057.518311 156.0
1057.971436 220.0
1060.679199 200.0
1063.831909 160.0
1066.56665 184.0
1068.478516 156.0
1071.434326 256.0
1075.490356 212.0
1084.228516 140.0
1092.633423 48.0
1092.686035 176.0
1093.061157 52.0
1106.559326 140.0
1108.122437 164.0
1109.123047 184.0
1111.06604 156.0
1111.112549 184.0
1113.914062 164.0
1119.407715 116.0
1124.70813 160.0
1125.37561 204.0
1125.529297 192.0
1130.516113 196.0
1139.111694 128.0
1140.26062 172.0
1143.690918 208.0
1144.222656 168.0
1146.000854 168.0
1147.928589 212.0
1148.94043 132.0
1151.552734 72.0
1153.836792 160.0
1156.942993 180.0
1156.996216 76.0
1157.158691 188.0
1158.682617 192.0
1163.674316 40.0
1167.962524 124.0
1168.220947 172.0
1168.67688 184.0
1168.908203 228.0
1170.426147 152.0
1174.02417 216.0
1176.118774 192.0
1176.95166 100.0
1178.310913 176.0
1178.86438 100.0
1181.421509 40.0
1183.509033 212.0
1185.858765 148.0
1188.595093 208.0
1189.912964 212.0
1191.83606 260.0
1198.999756 88.0
1201.095825 180.0
1205.314087 156.0
1210.183716 56.0
1210.33606 184.0
1210.419067 180.0
1212.843872 84.0
1212.961792 164.0
1213.544067 172.0
1216.520386 148.0
1220.543213 148.0
1223.688232 248.0
1227.185791 200.0
1230.36731 176.0
1232.39978 120.0
1234.986328 140.0
1238.479126 168.0
1239.691162 228.0
1241.359619 164.0
1242.853638 212.0
1246.91272 224.0
1248.614136 188.0
1249.113525 160.0
1249.767822 80.0
1252.464111 148.0
1252.696533 228.0
1253.358887 156.0
1254.881348 168.0
1259.920532 220.0
1261.581299 144.0
1264.601807 184.0
1266.782715 172.0
1267.377808 104.0
1275.468384 200.0
1276.706299 168.0
1276.897461 52.0
1279.85791 172.0
1285.332275 196.0
1285.553467 180.0
1289.574341 192.0
1291.596313 200.0
1293.300781 212.0
1293.422485 176.0
1300.03064 156.0
1300.863281 276.0
1301.006836 180.0
1301.459229 140.0
1301.882812 176.0
1302.665771 116.0
1302.881226 152.0
1304.311279 124.0
1304.548584 140.0
1306.296021 76.0
1306.425537 216.0
1308.980591 152.0
1309.153442 180.0
1309.405518 200.0
1309.506348 44.0
1310.104248 192.0
1314.336426 164.0
1314.466309 136.0
1317.838379 140.0
1318.907959 196.0
1319.486328 212.0
1322.539062 192.0
1324.36377 152.0
1329.090454 184.0
1329.634766 204.0
1331.028564 152.0
1333.382324 180.0
1334.552734 232.0
1338.969849 72.0
1340.769409 144.0
1354.600952 136.0
1355.179688 148.0
1356.44751 56.0
1356.498901 152.0
1358.046021 144.0
1359.080444 124.0
1360.643799 112.0
1362.406372 208.0
1366.935547 88.0
1368.739014 156.0
1374.068115 204.0
1374.400146 168.0
1375.662231 192.0
1378.550171 176.0
1378.712646 128.0
1379.008301 148.0
1381.352295 132.0
1382.595337 188.0
1384.638672 152.0
1386.765137 144.0
1392.656372 192.0
1393.466187 208.0
1395.212646 56.0
1397.466187 144.0
1398.180542 196.0
1403.932007 80.0
1404.088623 188.0
1407.364624 192.0
1409.687744 164.0
1409.814697 144.0
1417.410278 88.0
1421.609619 156.0
1432.519409 200.0
1433.29541 228.0
1440.372192 108.0
1442.72998 216.0
1447.728882 160.0
1448.125244 168.0
1453.834106 188.0
1463.214111 140.0
1463.282593 68.0
1465.727539 80.0
1466.421021 220.0
1470.394775 64.0
1477.78418 148.0
1478.113281 204.0
1480.654907 160.0
1480.884644 224.0
1481.305908 128.0
1491.902466 196.0
1495.911743 224.0
1499.038818 60.0
1499.408691 172.0
1501.783447 84.0
1504.630981 104.0
