>compound MLS001148648-01!2,2-DICHLORO-N-[4-HYDROXYPHENYL]-N-METHYLACETAMIDE 2-FUROIC ACID ESTER
>formula C14H11Cl2NO4
>ionization [M+H]+
>parentmass 328.01378964409054
#inchi InChI=1S/C14H11Cl2NO4/c1-17(13(18)12(15)16)9-4-6-10(7-5-9)21-14(19)11-3-2-8-20-11/h2-8,12H,1H3
#inchikey BDYYDXJSHYEDGB
#Ion_Source LC-ESI
#Instrument qTof
#Compound_Source NIH Pharmacologically Active Library
#PI Dorrestein
#Data_Collector VP/LMS
#Scan -1
#Precursor_MZ 328.017
#ExactMass 327.007
#Charge 1
#CAS_Number N/A
#Pubmed_ID N/A
#Smiles CN(C(=O)C(Cl)Cl)c1ccc(OC(=O)c2ccco2)cc1
#INCHI_AUX N/A
#Library_Class 1
#SpectrumID CCMSLIB00000084887
#IonMode Positive
#UpdateWorkflowName UPDATE-SINGLE-ANNOTATED-GOLD
#LibraryQualityString Gold
#TaskID d252d724072548979f1f6f1ced849daf
##Scan# 2147
#SpectrumFile p3-C02_GC2_01_18247.mzXML
#LibraryName Pharm_Active_Library.mgf
#MQScore -1
#Organism Pharm_Active_Library
#TIC_Query 0
#RT_Query -1
#MZErrorPPM -1
#SharedPeaks 0
#MassDiff 0
#LibMZ -1
#SpecMZ 328.017
#SpecCharge 0
#internalFilename spec-00000.mgf

>collision 10
45.098694 120.0
46.522591 228.0
47.087688 240.0
47.415653 180.0
47.490089 164.0
48.63258 244.0
50.49192 168.0
50.735474 148.0
51.297012 188.0
52.523079 160.0
53.175648 212.0
53.676098 156.0
53.719852 204.0
54.891762 176.0
54.947811 176.0
55.363174 196.0
56.926086 132.0
57.629539 128.0
58.623463 220.0
59.151928 96.0
59.245342 172.0
59.530636 168.0
60.460247 176.0
61.34716 40.0
61.37318 128.0
61.837639 196.0
62.009926 156.0
62.202858 184.0
62.572296 124.0
63.040771 192.0
63.339798 184.0
65.050873 136.0
66.266891 180.0
66.419281 160.0
68.161316 176.0
68.231995 288.0
70.954903 52.0
72.471817 172.0
74.003067 128.0
74.816864 64.0
75.427536 188.0
76.555298 72.0
77.234222 128.0
77.693184 172.0
79.75399 48.0
81.214584 88.0
81.286346 192.0
81.325829 164.0
82.267265 220.0
82.994576 160.0
83.470314 224.0
84.10614 248.0
85.263695 124.0
86.098267 184.0
86.401405 200.0
86.542068 196.0
86.617996 196.0
86.71991 176.0
87.325188 44.0
87.98484 124.0
88.1735 96.0
89.268326 140.0
90.333969 196.0
90.475899 140.0
90.834061 148.0
91.008659 120.0
91.937599 204.0
93.132294 144.0
93.902184 168.0
94.510696 220.0
94.721725 180.0
94.836044 144.0
94.940742 148.0
94.958191 120.0
95.013168 8740.0
95.068779 48.0
95.158066 92.0
95.251282 44.0
95.297905 80.0
95.365921 76.0
95.435905 40.0
95.718048 132.0
95.893379 44.0
96.016144 656.0
96.234764 40.0
96.36953 144.0
96.649132 84.0
96.715675 60.0
96.852737 100.0
98.53273 200.0
99.554802 80.0
99.755478 140.0
101.083801 148.0
102.110939 184.0
104.225502 96.0
106.062256 152.0
107.051437 184.0
107.066956 148.0
108.047424 160.0
110.975792 156.0
112.17202 152.0
122.064995 164.0
124.085327 228.0
134.059128 180.0
139.041412 164.0
158.92662 116.0
161.954315 132.0
162.049393 664.0
165.125656 172.0
165.96817 156.0
181.011597 204.0
181.084534 188.0
183.023438 96.0
183.282013 144.0
184.115555 212.0
185.164886 120.0
186.086853 184.0
187.057388 180.0
189.159271 100.0
194.093643 100.0
198.034225 60.0
202.116257 140.0
205.537399 156.0
211.029312 156.0
216.131058 188.0
217.083054 160.0
227.14386 156.0
236.011673 140.0
236.04837 200.0
239.165375 72.0
241.123886 172.0
242.188202 148.0
258.07077 188.0
261.122528 176.0
264.039642 256.0
277.676422 44.0
310.245605 124.0
311.298187 176.0
313.172699 128.0
326.178467 188.0
328.000854 380.0
329.212097 104.0
330.014282 232.0
330.549591 44.0
335.026337 28.0
363.136993 100.0
529.485962 80.0
692.994934 72.0
744.694641 212.0
767.97876 192.0
829.338318 184.0
831.615356 144.0
836.420532 108.0
837.652832 116.0
884.529297 224.0
903.297485 204.0
907.957275 204.0
908.641113 140.0
915.288635 144.0
916.788574 208.0
922.087341 216.0
930.17334 188.0
930.294739 164.0
958.317932 140.0
966.610413 196.0
966.709473 168.0
975.877258 152.0
978.067078 48.0
979.175354 232.0
979.331055 104.0
988.032776 180.0
1000.86792 176.0
1002.247375 84.0
1004.006104 128.0
1013.405701 128.0
1017.725098 172.0
1040.268311 144.0
1040.52002 60.0
1043.473999 180.0
1044.863159 132.0
1053.831421 88.0
1066.247192 216.0
1066.76062 140.0
1072.104248 108.0
1077.872925 104.0
1090.856323 136.0
1097.096924 96.0
1099.92688 152.0
1106.875366 152.0
1113.022095 184.0
1113.221313 176.0
1114.357178 144.0
1119.365723 164.0
1121.844238 200.0
1137.390259 60.0
1138.323364 76.0
1139.418213 80.0
1145.034912 148.0
1152.502563 224.0
1155.200073 216.0
1157.365723 76.0
1157.684082 156.0
1157.853394 180.0
1163.780029 188.0
1167.598999 204.0
1171.213013 224.0
1183.909668 156.0
1197.425293 208.0
1199.127075 216.0
1201.340454 112.0
1203.293579 196.0
1208.193481 92.0
1216.926025 136.0
1219.864746 184.0
1223.87207 164.0
1225.202271 216.0
1226.379883 200.0
1233.178101 140.0
1241.923096 192.0
1242.105469 104.0
1245.460693 164.0
1249.650513 172.0
1253.967163 236.0
1254.157471 180.0
1256.230591 168.0
1267.528687 52.0
1269.740356 184.0
1272.046387 176.0
1277.930786 68.0
1281.633301 168.0
1295.737061 96.0
1296.381958 216.0
1311.092529 128.0
1311.409668 224.0
1314.330444 180.0
1318.345337 172.0
1321.440063 156.0
1337.623535 148.0
1338.286011 168.0
1346.927979 156.0
1360.827637 148.0
1361.767578 192.0
1374.097656 200.0
1382.173462 120.0
1382.22522 88.0
1386.105347 108.0
1386.979858 184.0
1389.783203 108.0
1396.818604 184.0
1397.205444 160.0
1400.6521 72.0
1401.598267 176.0
1404.513184 164.0
1405.333862 140.0
1406.139771 140.0
1414.009644 176.0
1420.971069 144.0
1421.316162 116.0
1424.461914 212.0
1443.847778 148.0
1449.63147 44.0
1449.752686 196.0
1451.382568 204.0
1452.421509 112.0
1462.580566 228.0
1463.730225 136.0
1487.937378 184.0
1488.881958 168.0
1490.956177 224.0
1491.563354 124.0
1492.339844 152.0
1492.44751 116.0
1493.654907 148.0
1496.163574 152.0
1498.281372 52.0
1503.169678 144.0
