>compound MLS000876766-01!4-[[2-[(E)-3-hydroxybut-1-enyl]-5-oxooxolan-3-yl]amino]benzaldehyde
>formula C15H17NO4
>ionization [M+H]+
>parentmass 276.124
#inchi InChI=1S/C15H17NO4/c1-10(18)2-7-14-13(8-15(19)20-14)16-12-5-3-11(9-17)4-6-12/h2-7,9-10,13-14,16,18H,8H2,1H3/b7-2+
#inchikey RYJWSNUDETVRFF
#Ion_Source LC-ESI
#Instrument qTof
#Compound_Source NIH Natural Product Library
#PI Dorrestein
#Data_Collector VVP/LMS
#Scan -1
#Precursor_MZ 276.124
#ExactMass 275.116
#Charge 1
#CAS_Number N/A
#Pubmed_ID N/A
#Smiles CC(O)/C=C/C1OC(=O)CC1Nc2ccc(C=O)cc2
#INCHI_AUX N/A
#Library_Class 3
#SpectrumID CCMSLIB00000079403
#IonMode Positive
#UpdateWorkflowName UPDATE-SINGLE-ANNOTATED-BRONZE
#LibraryQualityString Bronze
#TaskID b1d8e8f6646f4e71acdff9ca3d919d08
##Scan# 1592
#SpectrumFile p1-H05_GH5_01_17961.mzXML
#LibraryName NIH_Natural_Products_Library.mgf
#MQScore -1
#Organism NIH_Natural_Products_Library
#TIC_Query 0
#RT_Query -1
#MZErrorPPM -1
#SharedPeaks 0
#MassDiff 0
#LibMZ -1
#SpecMZ 276.124
#SpecCharge 0
#internalFilename spec-00000.mgf

>collision 10
95.258324 140.0
96.29847 44.0
99.026527 224.0
99.933731 124.0
104.052124 140.0
104.306061 160.0
104.982018 80.0
105.033829 300.0
105.611061 156.0
106.037231 164.0
112.658768 112.0
113.024536 80.0
117.056458 356.0
118.066322 412.0
118.153412 128.0
118.733932 56.0
119.196327 56.0
120.043175 276.0
120.967308 156.0
122.989624 152.0
123.03598 156.0
123.130928 88.0
123.16848 68.0
124.135651 168.0
127.432564 72.0
128.039917 124.0
128.060181 184.0
130.061478 376.0
130.508789 52.0
131.067612 192.0
131.920044 148.0
132.009201 148.0
132.042938 2844.0
132.077927 188.0
132.533401 180.0
132.721359 96.0
133.039734 336.0
133.851883 144.0
134.058945 172.0
134.294357 92.0
134.382019 136.0
135.065842 128.0
135.725876 112.0
136.757355 104.0
141.066467 120.0
143.067841 336.0
143.910294 132.0
144.082245 340.0
145.07782 184.0
145.104187 164.0
146.004654 188.0
146.057999 220.0
146.182678 92.0
146.269318 60.0
146.746323 52.0
146.992355 48.0
147.05983 160.0
147.219269 56.0
148.040344 176.0
148.079193 400.0
149.074921 168.0
154.075241 184.0
154.209457 140.0
155.055893 136.0
155.083344 160.0
156.078674 156.0
157.084854 144.0
158.096756 320.0
158.92067 80.0
159.014023 160.0
159.066742 124.0
160.03212 176.0
160.109802 404.0
161.111572 148.0
162.12114 172.0
169.090057 152.0
170.002289 184.0
170.056793 152.0
170.097382 516.0
171.096573 196.0
171.354416 184.0
172.074249 180.0
173.080887 168.0
174.057297 332.0
174.092087 156.0
179.115799 196.0
182.087433 132.0
184.088394 132.0
184.115402 160.0
186.90213 200.0
187.973022 144.0
188.106155 356.0
188.150436 120.0
188.672241 60.0
190.050049 328.0
191.05545 168.0
191.135239 168.0
197.080307 176.0
198.093399 348.0
198.925919 104.0
211.061295 148.0
216.093124 152.0
217.62912 20.0
246.069855 192.0
830.846802 152.0
937.247986 48.0
1080.916748 180.0
1163.818237 204.0
1232.966309 224.0
1251.471558 216.0
1261.13623 128.0
1277.914917 204.0
1280.66272 148.0
1312.201172 188.0
1377.426147 156.0
1381.647217 176.0
1431.312744 188.0
1459.286133 148.0
1459.677734 20.0
1470.468872 112.0
1475.625122 116.0
1494.723999 76.0
1498.943848 204.0
