>compound Thiophene, 5-bromo-2-(4-fluorophenyl)-3-[4-(methylsulfonyl)phenyl]- [CAS]
>formula C17H12BrFO2S2
>ionization [M+H]+
>parentmass 410.950378
#inchi InChI=1S/C17H12BrFO2S2/c1-23(20,21)14-8-4-11(5-9-14)15-10-16(18)22-17(15)12-2-6-13(19)7-3-12/h2-10H,1H3
#inchikey AJFTZWGGHJXZOB
#Ion_Source LC-ESI
#Instrument qTof
#Compound_Source Commercial
#PI Dorrestein
#Data_Collector Garg_Neha
#Scan -1
#Precursor_MZ 410.952
#ExactMass 409.945
#Charge 1
#CAS_Number N/A
#Pubmed_ID N/A
#Smiles CS(=O)(=O)c1ccc(cc1)c2cc(Br)sc2c3ccc(F)cc3
#INCHI_AUX N/A
#Library_Class 1
#SpectrumID CCMSLIB00000079212
#IonMode Positive
#UpdateWorkflowName UPDATE-SINGLE-ANNOTATED-GOLD
#LibraryQualityString Gold
#TaskID 278b19f5865741e282cec7349aa7e7a1
##Scan# 2858
#SpectrumFile NCP003672_A27B27C27D27_BE4_01_15740.mzXML
#LibraryName NIHcollectionI_05062014.mgf
#MQScore -1
#Organism NIHcollectionI_05062014
#TIC_Query 0
#RT_Query -1
#MZErrorPPM -1
#SharedPeaks 0
#MassDiff 0
#LibMZ -1
#SpecMZ 410.952
#SpecCharge 0
#internalFilename spec-00000.mgf

>collision 10
56.398273 180.0
59.077976 200.0
89.760643 144.0
122.070091 156.0
123.709404 180.0
130.20787 228.0
146.843933 164.0
154.821609 140.0
158.836899 196.0
165.067429 152.0
187.341141 188.0
189.066772 168.0
191.133102 184.0
193.540024 156.0
196.069046 204.0
208.032166 124.0
208.062332 144.0
209.073853 492.0
210.079376 240.0
219.05864 160.0
219.536118 204.0
220.068436 4384.0
220.128769 120.0
221.073029 640.0
222.072006 184.0
226.194473 184.0
230.640274 168.0
232.032761 264.0
233.042801 224.0
234.048569 524.0
234.641281 180.0
237.04097 112.0
239.027649 380.0
239.880478 152.0
240.039413 372.0
241.042725 192.0
244.010254 148.0
251.035217 304.0
252.039917 4732.0
252.932327 196.0
253.046982 3856.0
254.047012 504.0
255.046997 160.0
269.042419 272.0
280.75647 180.0
285.031738 140.0
298.001343 140.0
298.957245 160.0
300.021545 160.0
300.950989 228.0
311.955231 340.0
312.708344 156.0
312.962769 108.0
313.955139 568.0
314.966797 112.0
316.939056 428.0
318.939331 1012.0
319.940613 168.0
320.011292 148.0
330.951965 504.0
331.067627 184.0
331.516846 172.0
331.965515 8536.0
332.032166 664.0
332.96582 1008.0
333.962555 7788.0
334.023865 156.0
334.921082 148.0
334.967316 864.0
335.962921 172.0
346.94873 332.0
362.941925 160.0
363.953247 180.0
365.002563 128.0
378.931458 244.0
380.916718 292.0
389.723602 144.0
409.379089 208.0
409.942749 988.0
410.303467 116.0
410.390503 156.0
410.491302 204.0
410.898682 244.0
410.950378 7024.0
411.091888 528.0
411.944611 1992.0
412.097198 140.0
412.44046 140.0
412.469574 152.0
412.881958 152.0
412.947632 4640.0
413.040131 132.0
413.086395 200.0
413.286621 172.0
413.320435 112.0
413.948364 776.0
414.432343 180.0
414.944519 280.0
415.210632 144.0
428.963593 504.0
429.988495 160.0
430.961456 404.0
501.204803 180.0
1350.893066 148.0
