>compound Azlocillin sodium salt
>formula C20H23N5O6S
>ionization [M+H]+
>parentmass 462.145386
#inchi InChI=1S/C20H23N5O6S/c1-20(2)13(17(28)29)25-15(27)12(16(25)32-20)22-14(26)11(10-6-4-3-5-7-10)23-19(31)24-9-8-21-18(24)30/h3-7,11-13,16H,8-9H2,1-2H3,(H,21,30)(H,22,26)(H,23,31)(H,28,29)/t11-,12?,13?,16?/m1/s1
#inchikey JTWOMNBEOCYFNV
#origInchi InChI=1S/C20H23N5O6S.Na/c1-20(2)13(17(28)29)25-15(27)12(16(25)32-20)22-14(26)11(10-6-4-3-5-7-10)23-19(31)24-9-8-21-18(24)30;/h3-7,11-13,16H,8-9H2,1-2H3,(H,21,30)(H,22,26)(H,23,31)(H,28,29);/t11-,12?,13?,16?;/m1./s1
#Ion_Source LC-ESI
#Instrument qTof
#Compound_Source Commercial
#PI Dorrestein
#Data_Collector Garg_Neha
#Scan -1
#Precursor_MZ 462.144
#ExactMass 461.137
#Charge 1
#CAS_Number 37091-65-9 ,37091-66-0(free base)
#Pubmed_ID N/A
#Smiles N12(C(C(SC(C(C1=O)NC(=O)[C@@H](C3C=CC=CC=3)NC(=O)N4CCNC4=O)2)(C)C)C(=O)O).[Na]
#INCHI_AUX N/A
#Library_Class 1
#SpectrumID CCMSLIB00000078602
#IonMode Positive
#UpdateWorkflowName UPDATE-SINGLE-ANNOTATED-GOLD
#LibraryQualityString Gold
#TaskID 77f51c88eb8b467eb4a01dd2d0cb90d2
##Scan# 1097
#SpectrumFile Plate9_61_80_GC7_01_15756.mzXML
#LibraryName FDALibrary_2_04302014.mgf
#MQScore -1
#Organism FDALibrary_2_04302014
#TIC_Query 0
#RT_Query -1
#MZErrorPPM -1
#SharedPeaks 0
#MassDiff 0
#LibMZ -1
#SpecMZ 462.144
#SpecCharge 0
#internalFilename spec-00000.mgf

>collision 10
45.348419 160.0
46.142654 192.0
46.211632 172.0
46.691841 216.0
47.037926 184.0
48.216434 140.0
48.498787 164.0
49.865261 192.0
50.886604 184.0
51.724869 144.0
53.301273 152.0
53.757065 212.0
53.970333 180.0
61.389984 192.0
65.646912 256.0
65.675941 164.0
69.09362 160.0
69.463051 192.0
69.790222 144.0
71.762657 176.0
72.161125 140.0
73.865181 200.0
74.831375 168.0
77.028709 160.0
77.551895 176.0
77.720253 200.0
77.790451 164.0
78.295082 152.0
78.399017 172.0
78.656525 176.0
79.422707 172.0
80.161911 108.0
81.838943 148.0
82.340256 164.0
82.68557 204.0
83.075142 140.0
83.213074 192.0
83.269363 168.0
83.522011 172.0
84.770813 156.0
85.347198 156.0
85.461235 260.0
87.05835 168.0
87.327835 148.0
87.497169 156.0
87.75428 268.0
88.062187 168.0
88.293945 160.0
89.083054 212.0
89.389519 172.0
90.683174 164.0
90.979088 184.0
91.055038 212.0
91.538078 140.0
91.587601 176.0
91.86972 176.0
92.012856 176.0
92.620972 140.0
93.336823 172.0
94.038063 208.0
94.856255 180.0
95.639061 260.0
96.015091 184.0
96.235596 188.0
96.845741 168.0
97.159386 176.0
97.770477 168.0
97.861023 176.0
98.02845 148.0
98.123062 152.0
98.989632 168.0
100.267876 156.0
103.425316 144.0
104.047653 164.0
105.069016 232.0
105.175423 140.0
105.265251 184.0
105.483864 212.0
105.541107 156.0
105.882858 228.0
105.948402 196.0
106.065407 3836.0
106.10006 144.0
106.929924 144.0
106.969032 160.0
107.069557 752.0
107.876686 184.0
109.443085 180.0
110.775536 220.0
111.171806 176.0
112.044411 140.0
112.871788 180.0
113.034195 1100.0
113.999008 580.0
114.037506 620.0
114.369583 164.0
114.422806 140.0
115.896538 160.0
116.453003 224.0
116.673485 192.0
118.06221 152.0
119.046402 176.0
119.06768 196.0
119.341484 144.0
120.400528 176.0
121.159538 180.0
121.339249 156.0
125.495987 140.0
126.329025 192.0
126.960655 172.0
127.086273 256.0
127.216446 140.0
127.366898 160.0
127.405083 156.0
127.688301 224.0
127.760284 160.0
127.895302 140.0
128.048172 164.0
129.783936 140.0
130.019608 184.0
130.060547 11888.0
130.739594 120.0
131.044403 500.0
131.063309 624.0
131.116043 164.0
131.57225 140.0
132.020096 248.0
132.043137 3092.0
132.074753 192.0
133.049393 132.0
133.966492 148.0
135.021332 164.0
135.190216 164.0
135.539871 144.0
135.887665 152.0
137.07222 188.0
137.255325 176.0
137.537613 156.0
138.070328 160.0
139.087173 176.0
140.095978 168.0
141.975082 200.0
142.031906 188.0
142.34053 156.0
142.863419 160.0
142.918137 232.0
143.115692 140.0
143.325302 208.0
144.091202 180.0
145.079956 212.0
146.061127 292.0
147.026154 180.0
147.590759 164.0
148.198303 184.0
149.908951 164.0
151.781693 180.0
153.064102 172.0
153.327682 184.0
153.855545 140.0
154.431305 148.0
154.782715 156.0
158.534302 172.0
159.106186 204.0
160.04303 2760.0
160.348816 176.0
160.956787 204.0
161.043045 388.0
162.043274 228.0
162.214188 156.0
162.65303 184.0
162.696182 180.0
162.767273 176.0
163.107712 156.0
163.896652 152.0
164.053894 552.0
164.299484 148.0
165.06398 508.0
165.470001 200.0
167.521957 140.0
168.009186 164.0
169.042694 148.0
169.578781 212.0
170.087158 244.0
170.406586 176.0
171.953369 160.0
173.525513 164.0
174.056702 932.0
174.089661 180.0
174.610687 140.0
174.72438 100.0
174.817841 148.0
174.970352 136.0
175.015961 152.0
175.086655 18668.0
175.626663 144.0
175.876144 160.0
176.088531 2988.0
177.095016 248.0
177.223419 324.0
180.043121 160.0
182.263855 212.0
185.134064 208.0
185.692352 172.0
187.012802 192.0
187.102646 160.0
187.835693 200.0
188.488205 148.0
188.52919 176.0
190.027008 176.0
190.886734 148.0
192.048721 1612.0
192.113113 164.0
192.744629 152.0
193.047623 224.0
193.671417 148.0
194.04837 148.0
195.119965 140.0
197.828842 176.0
197.938034 176.0
198.635895 148.0
199.093399 152.0
201.174164 164.0
201.205215 148.0
202.973572 172.0
204.818039 264.0
207.401108 200.0
209.121582 172.0
209.202179 192.0
209.233856 140.0
209.323105 168.0
211.07164 420.0
211.945938 164.0
213.062958 148.0
213.353577 232.0
214.080994 188.0
214.424759 168.0
215.042831 184.0
215.71196 172.0
216.425812 196.0
216.642548 212.0
216.959045 140.0
217.022659 184.0
217.049774 224.0
217.09407 160.0
217.17897 148.0
217.23558 216.0
217.355087 132.0
217.498795 144.0
217.671982 288.0
217.719437 200.0
217.80368 120.0
217.839096 140.0
217.885178 136.0
217.941513 144.0
218.02626 184.0
218.044144 208.0
218.09343 142568.0
218.177963 216.0
218.273392 168.0
218.333527 196.0
218.358917 236.0
218.385712 188.0
218.466064 144.0
218.508438 96.0
218.576157 1264.0
218.631165 196.0
218.704056 180.0
218.779846 96.0
218.806961 172.0
218.901093 140.0
218.990997 136.0
219.095352 18508.0
219.301849 176.0
219.345016 96.0
219.442734 156.0
219.483276 96.0
219.5672 144.0
220.097473 1524.0
220.246033 144.0
220.289047 100.0
220.461716 304.0
220.482162 128.0
220.621811 124.0
220.733368 192.0
220.815109 164.0
220.852982 336.0
221.107147 260.0
221.572327 144.0
221.741852 100.0
221.876282 116.0
222.318512 164.0
225.107864 208.0
227.050064 204.0
229.865356 124.0
230.765686 136.0
236.035385 188.0
240.088928 148.0
240.360397 160.0
242.131744 168.0
244.973831 148.0
245.756363 168.0
245.801376 196.0
245.886353 164.0
246.088028 44752.0
246.152344 212.0
246.380936 156.0
246.408173 104.0
246.47139 220.0
246.574509 144.0
247.090942 5044.0
247.275085 176.0
248.092133 644.0
248.499084 132.0
248.588181 168.0
248.691757 172.0
249.102615 160.0
250.164825 172.0
252.022964 100.0
253.507645 184.0
258.001953 148.0
259.071472 160.0
263.927521 144.0
273.09494 212.0
274.069366 144.0
277.105804 156.0
278.34964 152.0
284.697876 148.0
286.487274 172.0
289.100616 336.0
293.005463 156.0
302.089417 152.0
303.108459 4780.0
304.110596 1124.0
305.112885 356.0
306.096191 144.0
332.111023 172.0
333.085999 224.0
333.730682 192.0
334.082489 132.0
334.138062 240.0
335.09082 156.0
349.113159 148.0
376.093781 476.0
377.097626 144.0
388.526337 184.0
389.118958 160.0
415.564026 200.0
418.124054 148.0
434.143341 124.0
435.138611 160.0
437.683197 140.0
459.701385 144.0
460.418579 144.0
461.328705 160.0
461.477509 124.0
461.645081 200.0
461.940216 172.0
462.145386 15052.0
462.235291 148.0
462.649475 168.0
463.148651 5024.0
463.255615 168.0
463.283417 212.0
464.008667 156.0
464.146545 1800.0
465.13913 428.0
465.213409 188.0
465.330078 180.0
465.521423 96.0
465.768127 180.0
567.788879 140.0
907.495117 168.0
1066.754517 148.0
1237.950684 152.0
1244.478882 144.0
1252.735474 152.0
1310.791504 220.0
1320.508667 184.0
1332.83252 180.0
1388.219971 156.0
1459.821167 184.0
1511.641357 148.0
1603.559082 212.0
1604.746826 208.0
1605.456543 188.0
1670.710327 192.0
1682.641602 172.0
1691.044922 208.0
1697.074219 220.0
1714.525757 192.0
1721.265503 272.0
1736.111206 144.0
1754.72876 176.0
1757.965088 156.0
1807.215332 156.0
1822.494385 164.0
1824.763794 172.0
1840.364258 232.0
1840.449585 148.0
1844.50769 168.0
1849.93103 184.0
1861.316895 184.0
1867.263672 204.0
1872.815063 164.0
1889.614014 216.0
1897.192017 204.0
1903.065552 216.0
1950.292969 200.0
1950.987427 168.0
1968.132568 200.0
1990.526367 164.0
2001.792969 148.0
