>compound ClemastineFumarate
>formula C21H26ClNO 
>ionization [M+H]+
>parentmass 344.179
#inchi InChI=1S/C21H26ClNO/c1-21(17-7-4-3-5-8-17,18-10-12-19(22)13-11-18)24-16-14-20-9-6-15-23(20)2/h3-5,7-8,10-13,20H,6,9,14-16H2,1-2H3/t20-,21-/m1/s1
#inchikey YNNUSGIPVFPVBX
#Ion_Source LC-ESI
#Instrument qTof
#Compound_Source Isolated
#PI Sirenas
#Data_Collector Ed Esquenazi 
#Scan -1
#Precursor_MZ 344.179
#ExactMass 0.0
#Charge 1
#CAS_Number N/A
#Pubmed_ID N/A
#Smiles N/A
#INCHI_AUX N/A
#Library_Class 3
#SpectrumID CCMSLIB00000006259
#IonMode Positive
#UpdateWorkflowName UPDATE-SINGLE-ANNOTATED-BRONZE
#LibraryQualityString Bronze
#TaskID d19310cd93df49b68e9fcbec27720eb5
##Scan# 3
#SpectrumFile ClemastineFumarate.mgf
#LibraryName fda_library.mgf
#MQScore -1
#Organism fda_library
#TIC_Query 0
#RT_Query -1
#MZErrorPPM -1
#SharedPeaks 0
#MassDiff 0
#LibMZ -1
#SpecMZ 344.179
#SpecCharge 0
#internalFilename spec-00000.mgf

>collision 10
100.111908 68.267509
100.19149 4.5
100.235023 3.760417
100.430161 4.372578
100.482491 5.344444
100.552223 5.359509
100.566376 4.161638
100.691315 6.753592
100.723244 4.460022
100.792557 5.393939
100.821014 2.669643
101.0 6.632267
101.038719 4196.75
101.081169 16.445869
101.095436 25.6329
101.137825 5.463141
101.155548 9.3
101.184631 10.0
101.205727 5.928491
101.226631 4.688386
101.237129 3.035201
101.244347 9.870536
101.261696 4.501096
101.307152 2.0
101.314301 4.531863
101.33519 9.422149
101.342171 5.174603
101.357925 2.145833
101.379471 16.70545
101.422729 2.333333
101.433243 3.336538
101.468498 16.946911
101.478889 5.680744
101.521851 1.963141
101.532173 4.942345
101.540756 9.817581
101.563591 10.54561
101.584946 7.70376
101.5952 48.30262
101.622719 18.561211
101.638725 12.10753
101.647736 20.763029
101.688049 9.143794
101.717247 2.500992
101.805382 5.086925
101.839928 16.02496
101.913803 5.695833
102.023277 14.03689
102.046555 6819.60498
102.089676 103.931198
102.121323 14.39435
102.130119 8.302777
102.138718 6.719217
102.144531 13.08036
102.157951 4.5075
102.167755 15.18561
102.174782 9.094203
102.195984 6.872024
102.202011 7.836132
102.221672 30.620741
102.237289 8.294139
102.247223 12.1
102.255943 5.833929
102.274307 30.617069
102.286118 12.52326
102.300514 6.0
102.307549 6.0625
102.319397 8.027778
102.341866 17.612961
102.353302 3.185957
102.381645 20.57497
102.406174 3.6
102.423073 19.496639
102.43544 16.313419
102.441086 5.004167
102.457504 3.173611
102.467529 5.877778
102.478691 61.761501
102.499496 30.071039
102.507561 74.383453
102.514336 6.246795
102.533813 39.998219
102.539536 46.144051
102.552338 36.330189
102.558838 20.14938
102.594223 99.556908
102.610771 9.854167
102.61937 16.44379
102.625595 9.75947
102.635162 13.72091
102.642273 30.504459
102.660843 30.751289
102.685127 21.736111
102.697784 20.24774
102.709053 25.379471
102.731003 22.3349
102.748901 35.284439
102.76619 31.10499
102.793724 7.519608
102.804314 4.069444
102.816757 16.643379
102.836159 11.71007
102.849075 6.197917
102.854927 4.013889
102.861725 11.35873
102.886482 16.541439
102.906624 2.041667
102.925949 13.56165
102.939568 12.52865
102.961403 5.839285
102.989975 7.414944
103.054626 56306.570312
103.296402 15.57714
103.311172 19.57036
103.328979 16.003469
103.354546 36.50819
103.364853 5.2075
103.379189 78.536453
103.393578 19.084801
103.413826 15.63372
103.440277 29.37043
103.451851 51.264339
103.466934 12.20706
103.482506 16.218781
103.519241 53.219479
103.540459 14.32065
103.550537 26.527781
103.562469 29.04476
103.581863 10.20538
103.624191 16.769131
103.630943 31.55595
103.638977 21.475491
103.655403 57.074711
103.662849 13.67959
103.678833 7.720833
103.685783 14.89797
103.716576 29.85972
103.732315 5.854167
103.748123 2.4
103.759483 6.463235
103.77005 25.455429
103.779068 3.5
103.791924 8.129902
103.805054 11.0121
103.819832 14.22401
103.900505 22.144831
103.940712 6.083333
103.975166 9.167792
104.001709 14.24458
104.028725 6.857568
104.036041 10.8375
104.13369 17.4793
104.142548 8.23869
104.181404 12.09021
104.198471 6.236111
104.205399 13.415
104.241386 10.0
104.27977 7.582308
104.306458 6.944445
104.358635 5.005682
104.492195 16.28998
104.529297 7.502884
104.582756 9.673077
104.689407 10.00023
104.794441 2.1875
104.803619 4.349116
104.845703 16.385679
104.938705 4.512821
104.97081 4.980183
105.016022 10.23148
105.181564 4.109601
105.259705 2.0625
105.359673 3.387769
105.463249 7.167059
105.553146 7.006945
105.650902 4.125
105.86377 9.835649
106.368645 4.220395
106.419136 2.220238
106.999802 2.520833
107.120277 3.878942
107.883354 5.380952
108.105499 4.504808
109.456429 12.72438
109.925583 8.671952
110.098396 18.05718
111.000381 100.292397
111.09964 16.10083
111.120239 6.371795
111.466278 6.728151
111.701958 3.316667
111.947197 11.48039
112.112038 1191.092041
112.13961 3.168982
112.159042 1.407738
112.187645 7.89797
112.246246 5.980801
112.257111 6.076389
112.279419 4.01875
112.335083 8.214912
112.370155 3.958333
112.413109 15.56246
112.500702 8.333333
112.525406 7.760417
112.537605 4.681548
112.607742 4.334167
112.622505 4.55787
112.697266 4.8125
112.72036 7.333333
112.993134 15.35556
113.014999 25.304689
113.025284 7.001894
113.114151 3.954741
113.328766 3.514076
114.048386 5.024899
115.054871 86.030273
117.258324 4.017857
119.050079 25.627359
121.777031 8.74
123.591927 13.03583
125.013161 41.96558
128.104614 51.468769
128.19783 7.111111
129.044266 59.960121
129.07338 4.005208
129.345978 11.50264
129.368317 9.575941
129.393417 4.66711
129.405228 10.19043
129.43399 12.87048
129.454559 11.96733
129.467117 21.756889
129.484848 8.743997
129.520386 19.719959
129.529587 36.397598
129.549652 50.80965
129.564362 15.56597
129.591141 32.98719
129.615112 4.065104
129.63237 18.40991
129.643417 5.667439
129.662643 5.503409
129.671356 13.31728
129.715637 54.19598
129.749817 6.355556
129.769638 11.59336
129.809631 11.52083
129.83168 9.854167
129.879395 7.509869
129.993256 8.265625
130.07991 8.046027
130.122818 19645.830078
130.170609 54.297428
130.202103 14.22917
130.258362 18.49366
130.276031 15.07639
130.28392 23.069719
130.297867 21.042049
130.313751 16.046379
130.328232 33.951519
130.34549 8.755952
130.35376 42.1768
130.370544 9.553864
130.379837 30.180599
130.397583 32.06921
130.411148 22.469419
130.428558 16.55821
130.443832 15.96719
130.453583 39.19389
130.467865 39.524872
130.493546 10.8734
130.503815 37.15469
130.556381 31.61521
130.579559 25.19541
130.602036 9.695513
130.610947 4.682449
130.623245 13.50029
130.63913 16.0842
130.657684 10.73558
130.686584 9.189752
130.731949 38.37674
130.793594 19.78911
130.829529 13.63636
130.879257 11.49038
130.985138 9.55235
131.018356 15.89959
131.197281 12.37271
131.220139 3.377717
131.314484 6.127315
131.455215 13.5504
131.643021 8.887387
131.950531 11.12111
132.098801 7.377752
132.438446 4.171734
132.706741 8.851893
133.074249 5.241512
134.952499 9.167792
135.026917 7.553354
135.753891 6.730469
135.917236 11.03716
135.957809 11.97409
136.084045 3.701389
136.166656 4.0625
136.184113 9.172349
136.200119 2.834239
136.218079 49.5905
136.251007 32.731159
136.273956 39.762539
136.294983 67.426193
136.305954 9.015782
136.321503 41.19437
136.3405 44.01717
136.361237 25.112301
136.375229 16.350071
136.382889 9.666667
136.404007 87.419746
136.419113 29.506941
136.436539 5.183468
136.460388 10.5782
136.479111 5.898148
136.488403 10.51013
136.500458 9.014077
136.508896 30.32671
136.521072 27.66667
136.533478 9.509804
136.549576 23.24888
136.595306 32.67664
136.61969 9.62754
136.639038 10.03653
136.651031 27.47143
136.657516 23.75518
136.675064 18.56352
136.688812 11.17738
136.728455 7.775537
136.778732 4.493659
136.80159 8.945584
136.811157 9.533654
136.838455 23.30212
136.850311 2.220238
136.86969 17.926941
136.890137 14.62445
136.923325 26.423281
136.9487 5.649123
136.960648 27.40436
136.971344 35.557468
137.015564 75616.578125
137.066284 1.001894
137.073975 7.113426
137.107758 8.465517
137.29895 17.66914
137.331818 17.67898
137.366089 34.53569
137.383835 50.627579
137.418854 50.464729
137.441635 62.042622
137.461487 48.48563
137.469986 17.50172
137.478134 19.864639
137.490601 62.420681
137.509888 14.67889
137.525177 17.297729
137.541656 23.705629
137.562225 81.947723
137.577927 3.5
137.597046 72.220337
137.61084 29.950331
137.62709 28.778379
137.669739 54.8526
137.689835 24.554159
137.697144 21.98897
137.707733 33.506618
137.724747 17.9408
137.739487 36.89539
137.748505 11.49306
137.761642 5.620039
137.770218 24.834009
137.786148 35.398129
137.812775 7.002976
137.819885 32.532139
137.829041 20.761009
137.8367 11.52365
137.847641 7.478434
137.85582 24.97282
137.922806 48.323429
138.000595 10.07254
138.087662 12.83542
138.135544 16.19977
138.177078 20.029039
138.233871 42.42403
138.311859 17.16741
138.329346 10.3346
138.344055 6.925245
138.393295 2.083333
138.432907 5.851191
138.533539 21.333509
138.577408 4.666667
138.799484 11.3336
138.929825 2.669872
138.943436 16.34754
138.958572 7.465278
138.995453 5.565217
139.053345 50.846649
139.088699 9.594733
139.102386 3.580357
139.237534 6.598702
139.340149 3.607143
139.627792 5.002778
139.681244 4.180021
139.860733 2.133333
139.919373 6.074405
140.157181 3.592803
140.508896 6.181903
140.52951 3.0625
140.624374 3.500563
141.041367 4.0
141.072342 9.5625
141.707184 3.548611
142.196426 5.505376
142.383026 3.560606
142.902924 4.911574
145.261871 1.880208
145.933716 1.745192
146.674088 9.333726
149.017853 50.72089
150.047363 20.23558
150.952225 15.58683
151.054428 19.67444
152.061478 195.434097
152.527954 4.5375
153.067245 106.370003
160.569595 9.014423
163.05484 21.83353
163.386932 12.69422
163.507614 10.21402
163.530457 8.25
163.544754 6.860887
163.570175 5.490196
163.86557 48.564659
163.958038 6.020833
164.026855 5.833333
164.061981 156.772797
164.096313 16.690439
164.109283 13.69792
164.136032 6.851243
164.150314 29.98584
164.165604 15.71007
164.176178 0.847222
164.185913 7.168651
164.212463 8.815476
164.22702 36.998409
164.250458 38.367809
164.290085 15.91974
164.309006 47.915821
164.329605 39.233662
164.391266 5.670139
164.403534 6.209936
164.412903 5.633333
164.424973 26.406
164.439667 5.320076
164.450394 13.66525
164.467117 8.74138
164.492783 4.009804
164.546341 4.966667
164.577606 10.69271
164.612213 7.004311
164.631577 32.019119
164.680237 4.394817
164.702438 4.6875
164.773956 14.00257
165.002594 3.401389
165.031662 26.202841
165.070282 30715.810547
165.17662 33.731651
165.237564 12.66797
165.274521 12.53869
165.344589 22.80245
165.381363 55.563469
165.398911 21.778641
165.412094 59.77713
165.435944 14.11775
165.448456 63.991611
165.460495 10.2549
165.474564 32.890709
165.513168 50.22628
165.524597 16.93712
165.542191 79.775909
165.558777 15.69954
165.584839 49.49189
165.612411 51.869228
165.650528 21.83556
165.662292 15.9117
165.685837 31.86669
165.698196 7.625397
165.710983 38.803982
165.723694 45.635159
165.769638 9.010822
165.78273 17.904131
165.793671 18.86051
165.824997 6.245614
165.837311 31.752041
165.860947 5.34741
165.897705 15.17333
165.92598 29.6758
165.955154 8.20032
165.991837 2.14881
166.003036 4.416667
166.349792 11.35417
166.496399 4.740741
166.596542 5.335526
166.637405 7.525
166.80426 8.202262
166.858307 7.10947
166.960907 13.78397
167.415466 9.122475
167.536606 9.175439
167.56311 11.84626
167.671448 3.005682
167.94635 2.33443
167.958099 5.466667
168.908325 10.02564
168.96022 6.690374
169.066544 8.528985
171.454895 4.604167
173.980042 2.916667
175.030579 60.348042
175.771912 5.502778
176.061493 61.81094
176.099564 4.167659
176.113785 2.169643
176.154526 25.974911
176.376831 9.455882
176.907639 11.61113
176.95697 3.645833
177.011322 6.778409
177.069763 600.641785
177.098221 10.73927
177.131363 14.41518
177.177032 7.669445
177.18866 4.588542
177.209305 4.167659
177.2509 14.51894
177.261978 15.12096
177.283493 9.726716
177.311417 41.496479
177.343613 22.692961
177.35701 11.42596
177.376038 7.505376
177.391632 12.72178
177.432816 17.41157
177.445465 14.88021
177.517609 10.49193
177.547836 4.282052
177.660995 17.85017
177.72821 11.18978
177.774994 11.48992
177.853592 6.412783
177.90239 11.5872
177.91391 2.5
177.96257 23.7199
177.98497 22.010611
178.003418 6.852941
178.020737 9.119048
178.031769 84.001877
178.077606 11662.44043
178.13414 115.903297
178.152817 14.18975
178.164963 8.011905
178.183578 84.309883
178.211288 89.98925
178.227875 31.566339
178.24884 30.587259
178.260468 9.290277
178.278641 71.203163
178.295486 18.759689
178.324036 28.37476
178.358643 18.518749
178.369614 9.731884
178.388138 46.567478
178.423019 84.578247
178.45195 72.567146
178.476959 17.12521
178.499069 10.83559
178.511459 83.94133
178.540039 7.760417
178.557144 42.0135
178.57785 38.078499
178.606842 7.611519
178.617126 40.964298
178.649887 18.38592
178.671677 22.29196
178.713287 77.500633
178.735046 46.107521
178.766388 30.98633
178.815948 16.083639
178.829895 18.09516
178.843201 6.287202
178.880157 39.323639
178.903748 20.78491
178.969223 11.91004
178.985977 53.430939
179.037964 38.730461
179.053406 80.15992
179.085953 55885.890625
179.314697 34.209641
179.343948 17.95833
179.368378 18.98163
179.401566 17.47349
179.43779 14.71919
179.466843 20.418461
179.485535 19.36784
179.497253 17.075001
179.551376 82.93737
179.569489 74.188583
179.581238 18.0793
179.600037 57.933842
179.636398 118.700401
179.676804 77.219658
179.691483 34.4991
179.748657 72.719322
179.763123 35.053131
179.773346 20.988091
179.791672 16.41198
179.805038 49.58712
179.829773 33.440929
179.842758 52.945179
179.870331 38.746449
179.904663 72.579849
179.924011 24.70521
179.938751 13.67467
179.955734 9.181685
179.967896 59.30669
179.994324 45.33337
180.007446 13.17063
180.027649 30.243299
180.056091 43.97551
180.093658 81562.273438
180.166107 0.854167
180.357224 22.870171
180.387131 20.308729
180.438599 13.4859
180.483078 66.862663
180.497421 29.162121
180.510468 29.480061
180.528305 24.317181
180.541748 59.65308
180.567276 65.271111
180.592575 23.81794
180.608124 32.019611
180.618454 47.646111
180.645004 124.094597
180.678726 33.5611
180.691071 18.754379
180.705261 33.782539
180.717148 29.976971
180.74028 87.344421
180.767899 74.069733
180.799759 46.394321
180.819229 15.21552
180.834747 70.765839
180.861023 25.233471
180.891434 34.683201
180.921051 18.83073
180.934555 21.10853
180.946198 10.99333
181.011398 24.51502
181.053406 43.360321
181.167908 26.47887
181.207718 27.342251
181.229523 18.10989
181.307205 29.39736
181.34787 30.74295
181.376602 6.169445
181.403152 24.64432
181.415939 33.947781
181.442001 49.02597
181.470673 35.457878
181.509384 13.43709
181.525177 35.574921
181.569855 5.215278
181.597992 30.127501
181.693939 32.63271
181.822067 21.78723
182.041214 27.87565
182.120972 7.796371
182.240906 10.45557
182.255554 5.517302
182.292496 5.204167
182.391739 4.354167
182.495178 11.20373
182.575073 10.54808
182.617371 8.527664
182.64563 8.866936
182.834564 3.583333
182.88913 7.0625
182.918655 3.363971
182.998383 6.003074
183.160294 5.115661
183.276276 5.94079
183.375061 3.523438
183.416321 4.466009
183.554123 6.231884
183.661774 13.47083
183.831802 6.177696
183.86174 15.42857
184.318481 9.660038
184.332733 7.242816
184.625595 6.365173
185.378021 5.183435
185.629089 3.338691
185.998978 4.501894
186.027908 16.80508
187.000824 5.100833
187.02739 46.684219
187.187012 4.231771
187.415543 4.763889
187.691879 3.905357
187.897446 3.889661
189.259949 5.460227
189.776886 8.186531
191.091293 27.243811
196.42955 5.377778
196.65686 8.338691
196.972733 2.422149
197.092651 44.01223
197.199173 3.770833
197.38942 3.640833
197.618896 3.684627
197.658051 6.541274
198.019882 4.671297
198.941544 5.333868
198.975891 8.668285
199.005814 7.539216
199.030289 1018.445007
199.087799 7.080128
199.142776 7.308012
199.228653 10.69979
199.245895 5.681548
199.299911 6.856322
199.310867 24.063009
199.429642 15.16146
199.472794 4.588816
199.667831 5.345833
199.829727 8.569445
200.009811 35.102631
200.03862 2228.967041
200.095093 9.465991
200.208282 25.32967
200.229233 4.44079
200.254272 13.7064
200.283722 15.43846
200.352463 10.79945
200.372192 12.58224
200.526367 9.94086
200.731781 16.78447
200.810593 5.912281
200.88353 12.32785
201.170563 2.884615
204.403839 3.796474
205.070068 8.132247
205.94632 4.111883
207.09053 4.377604
211.554642 3.844445
211.721664 4.500463
211.773575 10.5625
212.038773 9.186275
212.923065 2.181818
212.944107 6.740942
213.04599 1334.964966
213.10675 2.745192
213.126236 11.80072
213.176956 2.166667
213.238647 4.259339
213.301285 9.08507
213.435913 8.069036
213.456512 2.357143
213.62767 12.38547
213.659775 8.213611
213.705032 15.67169
213.724274 79.644386
213.75444 21.735849
213.773178 56.839401
213.798294 22.91666
213.826401 21.282669
213.855362 37.367359
213.879791 48.921421
213.899048 9.002778
213.909836 87.332718
213.929077 48.703918
213.946854 23.458139
213.971588 55.039902
213.998825 20.07716
214.010788 2.506944
214.026703 9.500365
214.080261 14.95369
214.095428 6.993421
214.107178 4.060606
214.119339 16.412531
214.138046 6.333929
214.155609 9.3125
214.178772 9.554421
214.202271 22.907261
214.22934 9.397348
214.400818 7.667262
214.41304 9.85874
214.514923 3.714881
214.550491 11.60002
214.569641 5.55787
214.691589 13.02083
214.761597 17.717461
214.826218 33.07666
214.8871 4.1
214.984909 47.31551
215.062851 41376.398438
215.252411 18.027519
215.269089 17.243259
215.294434 11.0987
215.33638 7.20777
215.368134 60.90662
215.396667 11.19604
215.474579 24.53249
215.490005 50.558231
215.507568 38.195831
215.540634 78.421822
215.556076 13.53852
215.572006 25.11318
215.597549 38.493439
215.621613 42.6464
215.65007 58.99408
215.670837 32.996761
215.687302 48.492401
215.700012 17.309429
215.750229 68.291908
215.794525 61.291149
215.837692 9.604167
215.851532 32.15065
215.87796 6.243824
215.925949 17.46032
215.959732 21.44293
216.15181 6.466667
216.281693 13.66684
216.321289 9.818561
216.338577 27.134251
216.389191 10.57407
216.445267 7.505903
216.582932 32.791119
216.783463 11.9697
216.81395 8.704291
217.036438 21.46036
217.054321 42.85886
217.106384 4.011905
217.212799 8.07824
217.254456 12.11226
217.390381 8.561376
217.519135 4.3125
217.62149 1.875
217.716446 7.173913
217.84993 6.689352
217.87059 11.21013
217.953552 8.818548
217.993729 4.054824
218.150055 4.628205
218.199936 4.963235
218.346649 4.889881
218.667114 3.335648
218.699722 6.020833
219.00853 5.25947
219.465393 5.09375
219.851196 4.594697
219.934464 6.10947
220.216843 4.395833
220.269943 5.015625
221.743912 9.007336
223.830719 3.841666
266.500122 4.315476
269.640656 2.675595
281.531036 8.034439
403.530182 17.97798
477.930267 6.648809
550.915039 5.0625
592.279297 8.151124
915.410583 5.449253
1204.157349 5.554487
1238.470337 5.473352
1416.40271 10.14081
