>compound Natamycin
>formula C33H47NO13 
>ionization [M+H]+
>parentmass 666.313
#inchi InChI=1S/C33H47NO13/c1-18-10-8-6-4-3-5-7-9-11-21(45-32-30(39)28(34)29(38)19(2)44-32)15-25-27(31(40)41)22(36)17-33(42,47-25)16-20(35)14-24-23(46-24)12-13-26(37)43-18/h3-9,11-13,18-25,27-30,32,35-36,38-39,42H,10,14-17,34H2,1-2H3,(H,40,41)/t18-,19-,20+,21+,22+,23-,24-,25+,27-,28+,29-,30+,32+,33-/m1/s1
#inchikey NCXMLFZGDNKEPB
#Ion_Source LC-ESI
#Instrument qTof
#Compound_Source Isolated
#PI Sirenas
#Data_Collector Ed Esquenazi 
#Scan -1
#Precursor_MZ 666.313
#ExactMass 0.0
#Charge 1
#CAS_Number N/A
#Pubmed_ID N/A
#Smiles N/A
#INCHI_AUX N/A
#Library_Class 3
#SpectrumID CCMSLIB00000004694
#IonMode Positive
#UpdateWorkflowName UPDATE-SINGLE-ANNOTATED-BRONZE
#LibraryQualityString Bronze
#TaskID d19310cd93df49b68e9fcbec27720eb5
##Scan# 3
#SpectrumFile Natamycin.mgf
#LibraryName fda_library.mgf
#MQScore -1
#Organism fda_library
#TIC_Query 0
#RT_Query -1
#MZErrorPPM -1
#SharedPeaks 0
#MassDiff 0
#LibMZ -1
#SpecMZ 666.313
#SpecCharge 0
#internalFilename spec-00000.mgf

>collision 10
107.087051 16.25061
111.043213 49.334808
113.019867 44.270031
113.053978 1.253472
117.069221 61.390869
118.549301 3.506944
119.083595 51.413239
119.114357 3.006944
121.063614 20.56522
128.056198 15.85222
128.60611 1.53125
129.056458 23.75202
129.222305 8.79
131.085175 22.8692
131.313766 8.954545
131.717789 6.371976
131.840698 8.070313
133.062546 55.785561
133.489075 3.945313
135.041077 42.310951
137.020523 35.00182
137.057297 24.082861
139.038025 56.002762
141.070694 3.083333
143.084 21.075001
145.095322 25.41445
145.189545 17.21125
149.054718 28.01795
151.036148 18.00045
153.053635 65.030022
153.065903 2.820313
153.078156 4.501838
155.079498 28.255119
155.229156 4.0
157.052444 25.231871
157.063644 28.752399
159.078934 5.16875
159.113876 75.750397
159.246536 2.515625
160.451721 2.571023
163.040222 12.7505
165.056168 14.92599
165.087677 27.533831
165.250946 1.53125
167.081985 73.847641
169.098007 34.844509
169.130264 4.120536
169.268677 8.220109
171.075363 42.091911
171.111511 26.675779
173.094894 22.761909
173.128235 11.43182
174.129471 6.020833
175.033234 31.534679
175.069763 54.68642
175.158661 7.291667
179.07048 9.65
179.089493 24.791559
181.097595 30.41667
182.362274 2.751645
183.078369 34.50082
183.1129 84.982697
183.145325 3.8375
183.746094 17.175961
191.080139 17.750549
197.079086 36.55769
197.127975 21.140261
197.26062 7.680288
197.338837 3.0625
199.073227 20.82004
199.106003 23.180059
201.085297 13.27083
201.121582 20.757931
208.477829 4.5375
209.103943 17.964279
209.143555 14.36769
213.085968 27.284069
213.125504 26.722731
213.34819 2.251838
215.819809 4.005208
217.106339 37.387871
219.078278 32.55875
219.118896 24.09329
223.054092 22.970261
223.317154 1.53125
223.387772 2.0
224.003433 28.282881
225.085907 3.6
225.164474 40.297779
227.068802 16.660021
227.137375 53.88134
227.834396 2.51875
231.060089 13.46875
233.078827 58.257931
235.075577 41.614578
235.111633 40.1605
235.78447 7.75625
237.093445 24.276859
242.131653 4.1125
242.620987 6.310662
243.137177 27.42445
245.70462 5.22962
249.029358 20.31579
249.078064 32.172211
249.126678 32.191181
249.160843 34.591888
251.090118 26.780701
251.140366 56.515381
252.110352 8.767858
253.123642 70.500603
255.102905 18.91848
261.121368 14.10156
264.994263 15.25511
271.105042 14.2874
275.134583 29.41761
277.07074 84.455452
277.104401 12.84375
280.137573 6.230769
287.090179 8.315104
289.101318 15.65844
293.152771 37.929081
301.152466 26.39819
301.314728 13.03811
303.136719 6.5625
309.150299 35.120251
311.100952 22.9135
315.154022 7.053856
318.230927 4.861607
323.092438 36.66975
337.211975 37.92907
339.171112 22.27841
353.177246 41.694469
403.190582 2.75
510.71814 45.009949
510.817596 4.266667
1612.936646 8.775152
