>compound CefditorenPivoxil
>formula C25H28N6O7S3 
>ionization [M+H]+
>parentmass 621.126526
#inchi InChI=1S/C25H28N6O7S3/c1-12-15(41-10-27-12)7-6-13-8-39-21-17(29-19(32)16(30-36-5)14-9-40-24(26)28-14)20(33)31(21)18(13)22(34)37-11-38-23(35)25(2,3)4/h6-7,9-10,17,21H,8,11H2,1-5H3,(H2,26,28)(H,29,32)/b7-6-,30-16-/t17-,21-/m1/s1
#inchikey AFZFFLVORLEPPO
#Ion_Source LC-ESI
#Instrument qTof
#Compound_Source Isolated
#PI Sirenas
#Data_Collector Ed Esquenazi 
#Scan -1
#Precursor_MZ 621.125
#ExactMass 0.0
#Charge 1
#CAS_Number N/A
#Pubmed_ID N/A
#Smiles N/A
#INCHI_AUX N/A
#Library_Class 3
#SpectrumID CCMSLIB00000004870
#IonMode Positive
#UpdateWorkflowName UPDATE-SINGLE-ANNOTATED-BRONZE
#LibraryQualityString Bronze
#TaskID d19310cd93df49b68e9fcbec27720eb5
##Scan# 15
#SpectrumFile CefditorenPivoxil.mgf
#LibraryName fda_library.mgf
#MQScore -1
#Organism fda_library
#TIC_Query 0
#RT_Query -1
#MZErrorPPM -1
#SharedPeaks 0
#MassDiff 0
#LibMZ -1
#SpecMZ 621.125
#SpecCharge 0
#internalFilename spec-00000.mgf

>collision 10
100.009315 39.81488
111.179955 15.52679
111.307472 4.520833
126.011589 252.223404
140.000458 45.279999
150.032516 5.9
150.298294 8.002016
152.010468 21.780001
155.012115 117.004799
155.066498 3.6125
166.027939 166.059799
167.042267 68.02002
178.108475 31.115391
179.001282 45.60458
182.372742 8.784091
184.018814 26.625
189.026413 43.083328
195.010834 20.71023
197.046371 228.873093
204.589951 25.605
206.044815 17.1609
207.508804 12.3
207.987732 623.860413
208.627991 5.00329
208.699966 18.5
208.924911 7.446429
209.008926 240.095703
209.05835 46.349121
210.014343 142.054596
210.318085 12.6025
210.985367 13.875
211.993851 55.44899
213.043823 42.23835
213.993042 52.796879
214.020554 4.583333
221.014084 68.196808
223.010345 15.55882
225.044205 78.323273
225.993729 49.331371
227.000366 148.0392
227.048523 4.006945
232.024063 20.23703
233.658981 12.00543
233.994705 77.172234
234.026062 26.665541
238.0616 37.0
238.286896 19.35417
240.056473 33.5625
241.040085 296.535614
241.238846 18.215561
249.003632 30.92308
249.018646 83.76651
251.030106 68.586273
253.987411 8.5
264.398834 13.50694
265.355682 2.5
267.030304 32.898338
276.024536 97.501167
277.031311 55.755138
285.004578 49.983341
285.247131 7.840278
286.572418 6.3375
297.100891 13.5
304.01535 29.53441
321.016998 49.316669
331.998962 5.580357
334.489716 13.11773
352.99295 9.633333
355.051727 66.125
359.991241 9.8
414.010193 72.0
420.052185 13.4225
441.138092 5.0
621.126526 19.53846
622.020569 14.5329
