>compound Idarubicin
>formula C26H27NO9 
>ionization [M+H]+
>parentmass 498.174469
#inchi InChI=1S/C26H27NO9/c1-10-21(29)15(27)7-17(35-10)36-16-9-26(34,11(2)28)8-14-18(16)25(33)20-19(24(14)32)22(30)12-5-3-4-6-13(12)23(20)31/h3-6,10,15-17,21,29,32-34H,7-9,27H2,1-2H3/t10-,15-,16-,17-,21+,26-/m0/s1
#inchikey XDXDZDZNSLXDNA
#Ion_Source LC-ESI
#Instrument qTof
#Compound_Source Isolated
#PI Sirenas
#Data_Collector Ed Esquenazi 
#Scan -1
#Precursor_MZ 498.177
#ExactMass 0.0
#Charge 1
#CAS_Number N/A
#Pubmed_ID N/A
#Smiles N/A
#INCHI_AUX N/A
#Library_Class 3
#SpectrumID CCMSLIB00000005989
#IonMode Positive
#UpdateWorkflowName UPDATE-SINGLE-ANNOTATED-BRONZE
#LibraryQualityString Bronze
#TaskID d19310cd93df49b68e9fcbec27720eb5
##Scan# 2
#SpectrumFile Idarubicin.mgf
#LibraryName fda_library.mgf
#MQScore -1
#Organism fda_library
#TIC_Query 0
#RT_Query -1
#MZErrorPPM -1
#SharedPeaks 0
#MassDiff 0
#LibMZ -1
#SpecMZ 498.177
#SpecCharge 0
#internalFilename spec-00000.mgf

>collision 10
100.074661 11.97619
101.058754 42.85112
102.09082 41.785789
104.070213 90.875282
104.895546 6.043403
110.395821 7.840669
111.480972 6.234167
111.983391 6.920139
112.075394 1235.718018
112.120636 10.85938
112.184624 11.52002
112.216362 16.200701
112.291267 7.842105
112.341736 8.748903
112.507523 7.185417
112.536278 18.4902
112.555191 9.6875
112.58725 8.148214
112.596161 5.510833
112.609238 1.0
112.788925 11.87093
112.858688 8.671952
113.027931 12.22072
113.05986 7507.018066
113.197365 10.49629
113.232399 11.11328
113.245667 29.305849
113.276497 11.19858
113.300812 15.3416
113.328308 12.8588
113.362137 16.62698
113.384209 17.78009
113.426613 17.45977
113.456017 17.51515
113.48925 14.60323
113.505203 15.93651
113.557259 10.23472
113.643944 22.74008
113.71035 9.866667
113.724373 11.26871
113.817314 2.517045
113.854767 7.506667
114.040352 6.197601
114.062332 73.09996
114.297318 9.100278
114.534233 8.085417
115.861122 6.556019
117.239746 6.446428
118.043465 22.806589
119.233803 7.467129
128.119263 6.575758
128.51976 1.505208
128.874954 3.747984
129.163498 7.251736
129.312805 24.53603
129.338821 33.461609
129.366394 43.993698
129.381073 28.33778
129.418152 43.404362
129.443085 68.833687
129.466217 89.462288
129.484116 79.265182
129.506012 36.440491
129.528427 78.903809
129.550232 43.045551
129.580414 22.030621
129.601639 17.17992
129.616287 20.391239
129.664276 55.125599
129.733139 47.274391
129.743668 30.85574
129.767715 11.26
129.840408 6.83477
130.066452 5.35307
130.086884 56604.671875
130.123154 8.836805
130.135681 11.41369
130.149719 3.708333
130.170273 2.224537
130.191971 6.800833
130.256973 4.167262
130.282776 7.9375
130.295609 7.870833
130.47168 2.969697
130.547134 12.80809
130.574905 22.90167
130.590668 8.282372
130.598892 45.589939
130.633377 19.04118
130.662354 2.92803
130.678619 24.041731
130.691681 30.32568
130.712463 10.93679
130.753326 26.24353
130.76564 21.652491
130.788651 14.30729
130.820068 15.39352
130.836975 14.9067
130.890488 15.01905
130.920654 9.635299
130.955322 15.70988
130.999649 8.240079
131.052719 6.0
131.153229 8.020833
131.291779 6.736111
131.311279 5.140019
131.334869 11.84669
131.410187 14.4326
131.432114 18.100241
131.464569 8.800463
131.518112 12.46371
131.542694 8.080808
131.597488 22.27212
131.634369 7.759295
131.673965 9.217949
131.812317 10.56019
131.997833 6.055555
132.014526 9.001489
132.054062 11.76178
132.113754 7.504167
132.158539 7.0625
132.170547 6.034722
132.606445 8.731884
132.663589 19.166861
132.94101 7.354167
133.063919 9.320833
133.734177 5.50641
133.766403 8.262236
133.802582 6.160257
134.189178 6.191565
134.748306 6.095238
139.953598 13.17361
140.757385 18.86381
146.194321 11.3878
147.348557 13.95139
147.487747 5.502778
148.096039 515.735413
148.206879 7.188172
148.461594 5.881548
148.516434 6.541667
159.042038 17.94672
165.354355 7.011364
179.780701 7.704166
180.412415 22.66116
189.171539 6.801667
191.084061 15.32328
193.062469 20.023809
203.089432 12.42683
207.079681 24.365879
217.064529 26.17186
219.078964 6.075
249.047516 24.37681
249.889694 1.6875
263.068085 13.16667
263.878845 19.90362
264.478821 12.76955
273.055542 99.349159
281.897919 2.001894
289.135071 8.29885
289.208893 13.781
289.254608 23.772539
289.299896 38.888931
289.31955 38.68259
289.335266 4.333333
289.366516 20.215891
289.410675 44.461201
289.438141 13.60417
289.491119 11.50457
289.520905 13.70032
289.544586 39.259338
289.593384 8.964527
289.678528 8.672222
289.729706 10.75134
289.751801 22.12949
289.857361 11.59767
289.879761 7.222685
289.974762 12.00628
289.993744 9.3
290.181702 8.631945
290.238007 15.36255
290.530701 9.102083
290.624146 11.6875
290.976379 29.75791
291.00824 74.735703
291.066284 25272.070312
291.206207 8.098526
291.409149 8.590278
291.434753 3.518939
291.59552 19.211929
291.665161 22.73406
291.701111 7.503178
291.717896 51.02475
291.743744 14.45124
291.790863 50.412201
291.815247 10.89968
291.841949 13.20547
291.873779 26.481741
291.897827 39.113979
291.936432 25.86754
291.995575 6.908014
292.138428 21.624269
292.201721 13.75934
292.334808 26.23288
292.46521 12.40833
292.51004 15.20452
292.546143 11.00827
292.57959 7.583333
292.647186 9.94865
292.742432 9.016801
292.99408 26.240789
293.010193 23.20294
293.113983 7.586957
293.441711 8.375
294.148254 5.671734
294.244141 19.39583
294.602203 7.135803
294.624481 6.075941
294.681641 18.16164
294.830261 8.444853
297.110352 6.446428
299.42215 4.520833
305.08551 33.013851
309.076904 24.875441
315.073151 7.104167
315.326141 6.963235
316.235199 7.703266
328.434174 6.026667
329.91745 6.3375
330.994659 30.250481
331.023712 20.713449
331.060455 34.43507
331.089508 15.01336
331.131775 7.730469
331.179169 31.252871
331.23111 6.291667
331.29007 7.670494
331.345886 25.90237
331.390381 5.7
331.508942 9.221154
331.649902 1.944445
331.725281 8.828304
331.808258 14.34684
332.044006 5.556019
332.126343 6.245614
332.21759 13.65236
332.252655 13.18935
332.462402 5.525
332.907715 11.03783
332.925751 7.47046
332.963837 5.968334
333.027344 114.351196
333.077026 13802.370117
333.154388 3.386905
333.31311 2.580357
333.380676 2.113426
333.484589 4.502778
333.587555 33.480782
333.646301 21.151581
333.700012 27.88769
333.732513 49.7911
333.751831 7.376603
333.768921 17.28723
333.795959 1.834325
333.827209 73.873299
333.88913 43.10471
333.931274 24.793779
333.98053 11.19115
334.176605 17.5944
334.209778 44.46907
334.312408 17.104959
334.354828 6.525641
334.404785 7.210301
334.459503 10.6217
334.534302 13.16376
334.621887 8.175494
334.850311 6.019608
334.979218 7.000379
335.265839 6.880682
335.49942 9.2625
335.543121 9.626894
335.622284 5.692842
336.274109 6.592803
336.727081 3.555556
338.240936 5.928491
338.535126 6.56586
338.551453 6.024802
339.040894 7.357073
341.011078 17.19396
348.880096 3.027412
348.914642 9.381709
349.433411 11.36232
351.089172 216.451706
351.849426 2.030637
352.156219 6.925245
352.325958 5.891026
356.747467 5.606667
368.121002 72.927353
372.223114 10.34694
410.122986 18.17519
454.150269 12.16917
480.163879 13.51398
481.208282 14.75952
498.131104 6.540948
498.174469 119.663902
498.38678 7.26
499.686127 6.58173
637.893311 3.000672
684.846924 0.833333
751.773987 6.527243
1440.313232 0.847222
