>compound Rifabutin
>formula C46H62N4O11 
>ionization [M+H]+
>parentmass 847.4487852560906
#inchi InChI=1S/C46H62N4O11/c1-22(2)21-50-18-16-46(17-19-50)48-34-31-32-39(54)28(8)42-33(31)43(56)45(10,61-42)59-20-15-30(58-11)25(5)41(60-29(9)51)27(7)38(53)26(6)37(52)23(3)13-12-14-24(4)44(57)47-36(40(32)55)35(34)49-46/h12-15,20,22-23,25-27,30,37-38,41,49,52-54H,16-19,21H2,1-11H3,(H,47,57)/b13-12+,20-15+,24-14-/t23-,25+,26+,27+,30-,37-,38+,41+,45-/m0/s1
#inchikey ATEBXHFBFRCZMA
#Ion_Source LC-ESI
#Instrument qTof
#Compound_Source Isolated
#PI Sirenas
#Data_Collector Ed Esquenazi 
#Scan -1
#Precursor_MZ 847.45
#ExactMass 0.0
#Charge 1
#CAS_Number N/A
#Pubmed_ID N/A
#Smiles N/A
#INCHI_AUX N/A
#Library_Class 3
#SpectrumID CCMSLIB00000005088
#IonMode Positive
#UpdateWorkflowName UPDATE-SINGLE-ANNOTATED-BRONZE
#LibraryQualityString Bronze
#TaskID d19310cd93df49b68e9fcbec27720eb5
##Scan# 3
#SpectrumFile Rifabutin.mgf
#LibraryName fda_library.mgf
#MQScore -1
#Organism fda_library
#TIC_Query 0
#RT_Query -1
#MZErrorPPM -1
#SharedPeaks 0
#MassDiff 0
#LibMZ -1
#SpecMZ 847.45
#SpecCharge 0
#internalFilename spec-00000.mgf

>collision 10
100.112907 120.073997
107.085876 413.659393
107.112663 2.008333
107.128662 2.013889
107.526993 10.75
108.599266 5.25
109.06395 223.060196
109.101166 150.895905
109.618561 10.13626
109.749718 11.02422
110.834885 25.940319
111.0811 256.884399
111.124344 2.336539
111.350525 8.533334
111.535461 5.708333
111.604927 7.774123
112.111923 2363.309082
112.154778 32.18063
112.171539 7.864583
112.179436 17.3375
112.253052 6.710784
112.330467 13.6864
112.345215 8.676802
112.437424 4.007576
112.466576 19.54459
112.490166 10.17636
112.544426 10.83
112.718216 7.714285
112.751198 8.680555
113.05838 47.703949
113.213425 3.080128
114.127876 117.887398
114.382431 14.20455
115.074547 55.697201
119.085571 24.002781
121.065353 126.614098
121.098953 65.481819
121.23893 2.0
121.442032 4.8
122.22921 14.42014
122.317703 6.710784
123.078979 621.120789
123.118484 89.113289
123.194366 4.120098
123.254578 3.041667
123.289314 5.208333
123.34716 21.682619
123.509491 4.335526
123.725861 8.677083
124.263443 5.518939
125.093269 168.788605
125.399536 9.360043
125.673874 19.69562
126.128517 38.347221
127.074188 98.799248
127.099899 4.009259
127.429565 2.337121
130.119629 59.18634
130.141907 3.094697
131.08287 52.683331
133.062958 56.376049
133.100357 74.750633
133.284714 21.49342
133.577316 3.802778
134.471878 17.218941
135.078888 267.031189
135.115616 193.151306
135.168991 2.741667
135.380569 14.15369
135.42926 7.291667
136.456528 14.0947
136.540787 3.342592
136.65509 14.75556
136.942032 8.694445
137.057465 13.44537
137.097046 230.520599
137.143326 2.341667
139.076813 2.5
139.115021 73.024384
139.297043 3.893518
145.093521 12.77844
145.105133 23.986839
147.078537 75.859947
147.117859 147.041595
147.331314 8.675
147.407303 16.03409
149.055069 10.50631
149.092346 32.600491
150.278458 13.3795
150.50087 10.64651
150.865784 4.016667
151.053711 4.002451
151.075058 1307.696045
151.12468 6.481349
151.220505 14.10345
151.236908 6.932018
151.281677 14.46759
151.378601 10.17385
151.444 6.818182
151.597214 7.520833
152.197174 2.0
153.089432 162.999405
153.139282 18.438101
153.98381 15.33422
155.102966 12.09375
155.111893 43.945671
157.082886 73.131149
158.104752 32.045601
159.114075 149.785004
161.095993 269.692902
161.154465 2.339286
162.304214 9.010715
162.476852 8.342593
163.10994 444.632812
163.151505 62.787441
163.191727 1.720238
163.205688 4.963235
163.294434 6.347222
163.392929 23.120371
163.40889 31.30637
163.720139 11.2192
163.932541 3.5
164.247437 3.483333
165.127777 43.77916
169.087738 35.151939
171.572525 11.70383
173.09285 40.418159
173.13205 118.3908
173.189545 2.14881
173.369339 20.272221
173.435898 3.002778
173.579346 3.266667
174.098709 37.639641
174.160294 6.827381
175.111298 181.852798
175.14537 142.1698
175.24765 8.132247
176.085281 16.450581
177.091461 82.163017
177.129883 129.349197
177.185333 2.339286
179.10556 274.081207
179.314896 2.25
179.624573 27.436359
180.45459 4.518939
181.123184 65.592583
181.429077 18.67544
183.117874 56.2099
184.180679 4.408333
185.111481 94.950417
185.403854 8.573413
186.935043 2.041667
187.110123 22.130079
187.144196 31.252081
188.106735 44.512932
189.087234 36.707668
190.859299 3.125
191.107712 408.247406
191.277237 5.898148
191.330734 13.57992
191.359634 5.061275
191.855606 3.375
191.971268 14.02778
192.738449 4.120098
193.117767 152.218597
193.849106 4.444444
195.133881 29.50149
199.145187 34.566669
201.126297 113.5588
202.132431 49.160259
202.168091 5.35
203.108093 95.620773
203.140823 36.450001
207.098572 113.297897
209.121277 6.013889
209.167084 12.0672
209.214584 10.38075
209.484192 11.66755
211.14444 10.5307
213.124619 96.464233
215.10556 48.003712
217.117142 110.896202
217.156326 6.775537
217.813019 11.03261
217.911392 14.52
219.135559 34.39912
219.809433 4.671297
219.835205 21.027781
220.160568 18.346519
225.129257 128.949493
225.160675 73.123413
227.181915 8.888888
229.160797 44.685341
231.136673 46.372238
235.129959 34.497169
237.122406 10.00134
238.119583 24.36574
239.148041 20.796301
239.175262 28.601669
239.616364 11.29412
241.155151 44.044811
241.194504 64.273514
241.761795 3.483333
243.851624 8.775641
249.149689 88.811043
251.547638 2.367424
253.532379 5.121212
255.135956 22.768749
255.575012 10.00417
259.167236 120.5495
259.729523 13.64477
261.151367 22.348431
264.145172 10.45581
267.16629 29.58939
269.188934 13.71514
270.082275 26.645
271.161194 8.881579
272.063324 5.787037
284.159729 50.218948
292.563202 7.102273
295.072784 21.14982
297.087402 78.787682
297.336609 13.78241
297.472839 5.777778
297.510925 4.394608
298.00946 17.761789
298.18338 10.00595
303.547791 3.677083
307.079254 42.71627
307.333282 5.428572
308.367188 12.69667
308.540802 2.722222
309.08017 62.800419
309.192474 14.76056
310.086609 68.78846
311.080383 92.365868
311.15921 2.722222
312.116791 42.415981
315.933319 7.486111
320.346466 30.52441
320.500793 3.003205
321.074036 6.696428
321.086365 418.446014
322.112274 36.738491
322.328033 10.21338
322.358276 9.340278
322.709839 2.083333
323.091278 346.457611
323.174896 2.35
323.253265 5.334677
323.771362 3.720238
323.969818 4.333333
324.336243 13.20833
324.391449 3.888889
324.461578 8.334678
324.483276 18.138069
327.470703 42.404461
331.441925 11.33468
333.078339 26.06382
335.09436 21.197399
335.125977 21.33642
336.027313 2.583333
336.085419 17.97436
336.31897 15.61742
337.108948 21.73847
337.99115 8.088889
338.110107 298.031403
339.089142 27.883659
339.134094 12.33929
339.175415 4.345238
339.484711 18.74831
340.051666 30.422171
340.086029 16.20577
340.320435 6.925926
340.442596 6.1875
340.853729 4.6
342.108704 28.49781
347.099091 31.15691
347.215668 18.546881
349.06189 8.033603
349.114624 13.54672
350.070099 8.755208
350.11557 80.183456
350.180725 7.058333
350.95697 7.481667
351.076904 32.905609
352.130035 12.3649
352.157318 2.680556
356.130005 3.440476
356.970886 17.16667
357.201691 15.92064
357.233795 6.880952
360.121521 14.46759
363.136292 24.806471
366.110596 33.11544
367.198151 2.336539
368.162384 11.8848
369.796082 6.927469
375.090302 71.994667
379.149597 61.666672
380.178375 29.810961
381.16275 53.65876
388.408356 6.775537
389.142334 13.40076
389.210938 10.00321
391.069672 5.625
394.168182 12.72222
399.108978 17.082649
400.127472 68.016891
404.12088 3.333333
404.687531 4.666667
405.205597 1.671296
406.178833 29.12175
406.263733 12.0
406.460083 13.71795
406.642456 4.017857
408.190308 106.507698
408.222809 5.875
413.136444 33.856979
414.909485 5.541667
415.990845 11.42178
416.120667 51.63908
416.175446 28.00198
416.196167 18.04537
416.778656 6.840278
417.058258 8.027778
417.171692 34.886131
418.129639 26.835251
421.181305 27.526751
422.188721 99.728951
423.207367 332.425201
423.295502 2.367424
423.422913 5.013889
423.624817 2.35
423.78952 7.667593
424.207245 292.771515
424.527527 16.390539
424.931305 7.779321
425.732483 9.755555
426.145081 54.325451
426.472229 2.333333
426.565613 11.66667
427.157684 31.30357
427.363251 8.422101
428.077209 13.85195
429.157318 10.66667
430.118805 27.39448
431.148804 66.921997
433.156403 71.639374
434.203217 19.576151
436.118896 52.807411
440.209717 24.34091
441.411285 5.375
443.156189 13.84444
443.179871 33.274239
444.180847 29.375
444.465912 22.054489
445.152039 35.067032
445.177551 26.70455
447.171204 2.893518
447.200623 7.334302
448.173187 13.40653
448.982758 4.734848
449.192139 16.410521
449.779236 4.408333
456.191376 2.733333
457.165344 9.010715
457.220978 8.791667
458.167786 113.683403
460.153076 28.614941
462.186401 36.587391
462.798431 7.507184
465.209167 64.375
466.945129 9.980769
467.18689 12.69482
468.194611 62.304199
472.193054 19.667931
473.172302 68.392647
474.016785 5.001437
474.168182 51.471901
475.328125 23.436359
476.170654 21.360121
478.199341 5.382936
481.240448 26.87245
483.791931 9.852273
485.170746 57.003922
485.208527 7.017857
485.919586 5.053571
486.203186 7.523809
488.182343 107.658401
490.187561 20.91872
491.321136 35.04932
492.338196 43.417992
493.38028 6.047619
493.829163 6.76923
497.225037 26.270269
500.024658 6.844298
502.191772 31.287411
502.220551 12.06818
503.173187 14.35161
503.222168 29.0411
503.610352 7.921875
504.196045 14.29762
512.250671 29.383249
517.24231 131.015198
517.578979 11.41565
517.787109 11.70576
517.840027 7.49359
518.439453 10.1131
522.230225 56.491268
524.018616 21.875
527.263123 20.655029
530.183533 13.38081
530.21637 13.54545
531.197449 17.76333
531.228882 23.904819
532.213623 40.681789
532.49884 2.708333
532.827881 8.629902
534.95813 3.041667
537.214233 42.653049
538.260254 26.39674
543.110046 3.010417
543.260315 47.677898
544.257385 41.19286
545.273132 168.567703
545.642456 10.02222
547.220154 13.67581
548.283752 43.227219
551.162231 17.581141
554.267273 47.526878
554.316589 3.720238
555.241272 8.022223
556.234497 38.554722
562.258545 59.445309
562.320557 3.857143
564.244568 20.191139
568.219299 7.083333
569.39978 12.0
570.218628 7.454545
573.164795 35.300289
573.263611 391.814514
573.496765 7.005556
575.214355 4.844298
575.284607 153.5569
575.381104 2.333333
576.249329 6.775537
577.302368 21.43251
579.982483 6.533333
580.262451 70.984673
580.809631 2.0
580.968689 35.697071
582.234863 9.763888
583.285278 8.444445
585.306519 34.59457
585.766785 5.677083
587.282166 9.107456
588.044128 6.075
588.220642 11.22685
588.294006 12.59572
588.852478 6.801667
589.244629 17.76333
590.964844 14.3375
591.292969 11.89043
591.362427 7.736842
597.273743 4.120098
598.312622 30.2803
599.316467 26.047541
601.283447 60.386108
603.30304 29.738319
603.338501 7.625
608.251038 119.007599
608.645874 18.59631
608.677917 15.67374
612.256531 19.508881
613.251221 40.326672
613.295898 39.07407
616.319031 10.08333
618.332092 30.375
619.254639 32.935421
620.268921 62.102669
624.264954 7.136111
626.305176 93.791359
629.020508 1.720238
629.285339 5.522727
631.309448 84.319763
631.617493 3.668651
631.704956 2.4
631.821594 4.013889
631.940796 39.364899
632.20105 24.94709
632.319153 364.059387
632.562134 7.670455
632.649597 2.35
632.850891 8.20119
633.239868 16.639179
633.4198 7.748333
633.525513 24.071011
633.647583 11.83841
634.284973 117.807098
635.970337 14.73611
638.288269 38.159088
639.286743 41.372372
640.347656 37.669449
642.279236 69.330193
642.324097 43.89362
642.385681 3.375
643.360107 8.552536
643.513428 18.54545
644.296814 9.34543
645.3526 5.916667
646.07312 6.927469
647.304504 26.375
650.608276 14.80659
650.714783 3.688725
651.337769 59.616119
652.300659 215.626694
653.060486 16.044451
653.130798 3.010417
653.433228 1.694445
654.271484 33.321499
654.339966 46.601089
654.446655 3.791667
654.563049 5.0
655.278687 102.836998
655.411194 15.55648
655.765381 4.166667
656.312622 64.910919
656.799438 9.429762
657.282166 23.480391
659.35144 12.76552
661.29657 54.853569
665.096375 6.55147
665.305725 5.695513
665.359009 9.676802
666.068115 4.008333
666.309082 95.359917
669.295227 3.686404
669.610291 5.668478
670.024414 5.006944
670.308105 293.661499
670.755127 12.37306
670.814819 4.375
671.158813 14.21491
671.37323 2.666667
672.330505 44.93343
673.288757 31.804661
674.723267 12.86539
674.761597 8.148809
675.397156 11.08889
675.790894 63.820122
676.360718 1.666667
680.279541 8.125
683.292786 9.739865
684.286072 28.486111
684.322205 137.604294
684.383362 15.72459
684.44519 3.440476
685.143921 4.1875
686.777954 10.56019
687.312012 20.80278
689.343628 57.082958
690.141846 3.375
691.2901 15.91667
691.330017 50.124241
693.342041 7.935
694.321655 33.633949
695.340698 121.974503
696.237366 3.686404
697.269897 15.60449
697.301514 72.364067
697.356384 74.104218
698.293762 71.594872
699.347595 24.986839
700.171631 2.761364
701.385437 121.836998
701.545349 17.83143
702.319641 234.477402
703.130066 7.656609
704.796387 16.272221
709.388794 17.335711
711.364319 14.9481
711.699036 20.658039
712.32666 214.0914
712.387207 31.715981
712.710815 18.127451
713.300415 76.346207
713.453003 4.061275
713.582153 11.84052
714.177979 14.91177
714.295288 99.731239
714.820862 3.115741
715.300659 234.907898
715.694214 3.080128
715.750061 4.120098
716.315613 346.231293
716.372437 9.49359
716.7276 18.00738
717.035095 7.111111
717.777527 2.041667
719.375854 53.384491
719.412415 3.666667
719.758179 3.490385
720.066345 8.755208
724.304688 20.72024
725.274902 1.720238
725.847778 68.316963
726.315002 16.74383
727.324829 23.531389
727.386963 22.015341
730.33252 679.425293
730.4422 2.680556
730.563477 14.50417
730.615601 1.720238
730.68335 17.037359
730.775391 7.482143
731.025452 6.633772
731.123413 5.395833
731.377991 30.37377
731.650269 2.4
732.352966 77.081879
733.405212 5.510417
734.319458 23.805
735.324707 30.014151
737.345947 26.68729
737.386414 458.618011
737.685425 3.041667
738.147583 22.264481
738.450928 20.881201
738.809143 5.166667
739.642273 4.675
742.323486 17.721149
743.398865 13.25926
744.356262 98.147697
746.337952 21.585859
747.183533 9.009259
747.327209 37.85014
748.353333 2.761364
750.135925 20.19993
750.340759 24.558929
750.381714 3.335526
750.467468 10.69089
750.59137 5.333333
750.811523 5.564815
751.217407 26.082029
751.430481 35.380699
751.516052 4.347222
751.640442 28.824039
753.271973 8.523648
754.389526 3.00463
754.857788 9.920635
755.399109 3801.919922
755.534363 26.46014
755.590942 31.22756
755.755676 28.48835
755.803101 31.2637
755.843628 95.014183
755.890259 29.798679
755.986023 6.002451
756.129883 29.89344
756.536438 39.924019
756.599243 43.15247
756.694092 13.87078
756.874817 58.60099
756.933289 13.72803
756.981201 21.61924
757.310608 23.47164
757.776978 29.01775
757.916748 16.72727
759.175476 14.14005
759.42395 17.279011
762.162781 10.00595
762.350769 37.210651
762.398926 12.51389
762.744568 9.861112
763.294006 13.18561
763.551819 4.025
763.986511 4.297619
764.373291 15.22635
764.488281 27.533819
764.850159 16.54701
767.92395 12.81492
769.415649 278.426697
769.633057 8.755952
770.048279 13.15152
770.621704 8.833333
772.368958 17.616671
773.369751 284.351105
773.845825 10.96354
774.832031 21.37719
774.985718 5.672619
776.362671 3.36218
777.360229 3.388889
778.243164 17.37126
779.399475 107.075104
779.883911 2.083333
781.530701 5.884804
782.715637 29.7752
782.88385 9.338889
783.019836 9.25641
787.427246 414.618896
787.567261 12.28864
787.636658 6.0
787.705017 8.676282
787.812439 6.716667
787.958618 49.105782
788.390686 10.07692
788.574646 9.523611
788.661804 10.02778
792.32074 6.98077
792.854065 7.041667
792.973938 15.26239
797.407288 473.8573
797.492004 44.05471
797.651367 2.458333
798.070435 34.55637
798.127502 23.294609
798.600647 17.39167
801.40448 25.252831
803.694031 1.6875
804.933716 14.34343
809.718384 61.478069
809.809265 45.62849
809.868286 33.433819
809.915894 5.341667
810.006714 104.093903
810.140198 65.920517
810.282349 55.105759
810.396057 116.515198
810.584595 7.00974
810.674255 13.26786
811.074829 13.12821
811.521667 2.816667
811.869324 74.22364
811.966614 14.26042
812.037598 14.16667
812.432922 7.037037
812.657166 23.280769
812.77594 5.054487
813.007874 24.667311
813.087158 5.671875
813.578003 17.12855
813.702332 7.666667
813.83136 5.688726
814.228333 10.83
814.297852 5.136111
814.391296 7.382936
815.331421 31.81694
815.421021 10189.379883
815.566345 194.886093
815.620056 8.0
815.691711 268.871002
815.777649 227.764206
815.819458 56.68602
815.861633 130.875198
815.906311 140.495193
815.971375 167.415802
816.026001 33.001808
816.095337 39.433048
816.147339 23.0441
816.637146 61.224331
816.93988 12.01042
817.067688 36.34742
817.118103 52.970669
817.24646 27.624281
817.362854 51.962521
817.408813 26.116501
817.457764 71.809441
817.524658 22.16667
817.794189 5.375
818.17627 19.40476
818.217529 19.97336
818.492554 15.09677
819.319275 7.408333
819.432251 44.022598
819.617615 8.765873
819.798828 19.84375
821.172058 18.021429
821.846008 24.013691
822.28894 2.666667
827.924988 7.482143
829.425232 129.1297
829.807922 7.031565
830.198792 12.70833
830.357666 15.39682
830.507568 14.98039
831.12561 10.38075
832.661438 10.45833
838.3479 3.678571
841.675232 15.22689
841.816223 5.120098
842.300781 15.13043
844.483521 19.279011
844.541931 11.615
845.303894 11.525
847.446533 1607.906982
847.569641 17.252081
847.660828 2.347222
847.709717 37.065811
847.813354 14.63712
847.893738 6.0
847.967041 4.669445
848.083801 59.874161
848.532898 15.71078
848.643188 9.125
849.353271 11.40833
849.637024 14.187
851.357727 15.17339
851.681519 5.125
854.094482 2.347222
882.082153 9.583333
883.325928 7.408333
900.792908 6.615
1253.139038 6.022059
