>compound MLS001048862-01!3-(1H-indol-3-yl)-2-methylpropanoic acid
>formula C12H13NO2
>ionization [M+H]+
>parentmass 204.102
#inchi InChI=1S/C12H13NO2/c1-8(12(14)15)6-9-7-13-11-5-3-2-4-10(9)11/h2-5,7-8,13H,6H2,1H3,(H,14,15)
#inchikey JDZNIWUNOASRIK
#Ion_Source LC-ESI
#Instrument qTof
#Compound_Source NIH Natural Product Library
#PI Dorrestein
#Data_Collector VVP/LMS
#Scan -1
#Precursor_MZ 204.102
#ExactMass 203.095
#Charge 1
#CAS_Number N/A
#Pubmed_ID N/A
#Smiles CC(Cc1c[nH]c2ccccc12)C(=O)O
#INCHI_AUX N/A
#Library_Class 1
#SpectrumID CCMSLIB00000079357
#IonMode Positive
#UpdateWorkflowName UPDATE-SINGLE-ANNOTATED-GOLD
#LibraryQualityString Gold
#TaskID b1d8e8f6646f4e71acdff9ca3d919d08
##Scan# 1909
#SpectrumFile p1-A05_GA5_01_17878.mzXML
#LibraryName NIH_Natural_Products_Library.mgf
#MQScore -1
#Organism NIH_Natural_Products_Library
#TIC_Query 0
#RT_Query -1
#MZErrorPPM -1
#SharedPeaks 0
#MassDiff 0
#LibMZ -1
#SpecMZ 204.102
#SpecCharge 0
#internalFilename spec-00000.mgf

>collision 10
96.32325 168.0
97.481117 88.0
98.175995 180.0
98.373291 96.0
98.849602 136.0
98.895119 164.0
100.836258 168.0
101.13826 200.0
101.751656 216.0
102.044617 236.0
102.129433 112.0
103.05394 2064.0
103.21843 76.0
103.495628 240.0
103.540176 172.0
104.030846 120.0
104.053864 192.0
104.477913 68.0
104.915749 132.0
104.952446 76.0
104.980988 200.0
105.036057 180.0
105.841248 176.0
106.452293 56.0
106.592354 88.0
106.865433 68.0
107.516571 132.0
108.277344 112.0
109.169685 72.0
110.71183 260.0
114.888474 140.0
115.050659 220.0
115.136063 176.0
117.056107 1876.0
117.285828 100.0
118.061012 192.0
118.79512 172.0
119.125069 208.0
119.823372 124.0
120.237663 84.0
120.445076 160.0
121.620865 84.0
121.906364 156.0
125.155769 136.0
126.043503 184.0
126.334145 128.0
126.974731 156.0
127.057724 120.0
128.048615 416.0
128.549438 192.0
128.599091 256.0
128.922043 52.0
129.007919 164.0
129.056168 432.0
129.252182 120.0
129.870636 80.0
129.96817 184.0
130.011292 180.0
130.027176 168.0
130.065353 19720.0
130.135422 64.0
130.201981 128.0
130.226959 56.0
130.242859 56.0
130.264435 104.0
130.322372 44.0
130.379181 80.0
130.415543 76.0
130.456451 52.0
130.563324 44.0
130.624725 72.0
130.877335 64.0
130.993484 96.0
131.068359 1496.0
131.166656 184.0
131.333099 60.0
131.709702 32.0
131.768509 92.0
131.881073 260.0
132.050262 64.0
132.069611 216.0
132.093719 140.0
132.137177 108.0
132.327133 48.0
132.434753 44.0
132.505768 76.0
133.501923 52.0
137.211258 88.0
139.38559 28.0
141.063599 244.0
142.067627 180.0
143.071579 1036.0
143.094269 220.0
144.077438 204.0
154.584213 68.0
156.082428 140.0
157.091003 180.0
158.095581 528.0
159.108047 184.0
162.878204 20.0
198.487701 84.0
210.081146 104.0
228.795135 76.0
618.786926 28.0
686.039978 128.0
718.052368 172.0
729.451477 88.0
736.47229 128.0
751.498413 56.0
773.995361 172.0
819.477539 96.0
827.261414 120.0
862.372986 172.0
873.213379 148.0
915.565247 120.0
998.718689 132.0
1002.943542 44.0
1016.255066 164.0
1029.750122 200.0
1079.389771 120.0
1083.080811 144.0
1089.627441 136.0
1092.14502 80.0
1108.192871 140.0
1113.101074 80.0
1119.930786 64.0
1125.859741 216.0
1131.723999 140.0
1142.939575 140.0
1147.155396 224.0
1150.987427 152.0
1156.192383 252.0
1158.345459 100.0
1164.938843 164.0
1167.719849 128.0
1236.578979 164.0
1256.817261 152.0
1260.340454 152.0
1262.050903 144.0
1275.982422 208.0
1277.682129 32.0
1280.19458 48.0
1291.399048 88.0
1292.994385 160.0
1295.908813 204.0
1314.928345 80.0
1315.902832 196.0
1323.849243 188.0
1324.276489 152.0
1325.486206 124.0
1327.747925 216.0
1332.189941 220.0
1333.272461 164.0
1341.11792 164.0
1344.436279 148.0
1351.59729 176.0
1356.035034 188.0
1358.168579 184.0
1358.256592 220.0
1375.991211 216.0
1377.697144 240.0
1381.748291 260.0
1382.347534 144.0
1384.598022 228.0
1385.642334 144.0
1387.658203 204.0
1391.575562 124.0
1393.320801 164.0
1398.369629 212.0
1400.513794 144.0
1404.404419 96.0
1411.887817 72.0
1416.34436 236.0
1417.756836 228.0
1422.639526 216.0
1427.508057 160.0
1435.324097 160.0
1442.827881 172.0
1446.202393 184.0
1447.549927 56.0
1448.466309 220.0
1452.650513 152.0
1454.084473 156.0
1456.035522 220.0
1457.342041 200.0
1457.88916 148.0
1459.188965 212.0
1473.394531 176.0
1489.304321 164.0
1499.637329 144.0
