>compound MLS001211239-01!Isonicotinic acid (4-hydroxy-3-methoxy-benzylidene)-hydrazide
>formula C14H13N3O3
>ionization [M+H]+
>parentmass 272.101868
#inchi InChI=1S/C14H13N3O3/c1-20-13-8-10(2-3-12(13)18)9-16-17-14(19)11-4-6-15-7-5-11/h2-9,18H,1H3,(H,17,19)
#inchikey PSWOBQSIXLVPDV
#Ion_Source LC-ESI
#Instrument qTof
#Compound_Source NIH Pharmacologically Active Library
#PI Dorrestein
#Data_Collector VP/LMS
#Scan -1
#Precursor_MZ 272.098
#ExactMass 271.096
#Charge 1
#CAS_Number N/A
#Pubmed_ID N/A
#Smiles COc1cc(C=NNC(=O)c2ccncc2)ccc1O
#INCHI_AUX N/A
#Library_Class 1
#SpectrumID CCMSLIB00000085333
#IonMode Positive
#UpdateWorkflowName UPDATE-SINGLE-ANNOTATED-GOLD
#LibraryQualityString Gold
#TaskID d252d724072548979f1f6f1ced849daf
##Scan# 1278
#SpectrumFile p3-H06_GH6_01_18311.mzXML
#LibraryName Pharm_Active_Library.mgf
#MQScore -1
#Organism Pharm_Active_Library
#TIC_Query 0
#RT_Query -1
#MZErrorPPM -1
#SharedPeaks 0
#MassDiff 0
#LibMZ -1
#SpecMZ 272.098
#SpecCharge 0
#internalFilename spec-00000.mgf

>collision 10
45.70713 196.0
47.639339 184.0
48.487991 176.0
49.136021 248.0
49.209995 88.0
49.328751 168.0
50.248672 184.0
51.214119 208.0
51.322433 140.0
51.716747 264.0
52.139877 232.0
52.638351 68.0
52.735149 244.0
52.746716 32.0
53.143547 156.0
53.909523 236.0
54.927055 108.0
55.650776 200.0
56.983139 228.0
57.144024 128.0
57.959415 192.0
58.323666 44.0
58.375359 56.0
58.524487 108.0
58.623505 192.0
59.645947 292.0
60.097202 208.0
60.440243 180.0
61.199299 132.0
61.614189 148.0
61.840942 188.0
63.218113 64.0
63.446209 80.0
63.554066 236.0
64.42659 184.0
65.983994 188.0
66.41964 152.0
66.66481 104.0
66.728203 200.0
67.930244 188.0
68.367317 148.0
69.176117 212.0
69.956375 172.0
70.137955 224.0
70.214653 104.0
70.473404 208.0
70.602127 152.0
71.498039 192.0
71.693398 48.0
72.565659 260.0
73.675362 240.0
74.621445 172.0
74.717766 112.0
75.210632 80.0
75.331512 196.0
76.822784 200.0
77.392563 204.0
77.431091 168.0
78.418541 152.0
78.868645 160.0
79.160568 256.0
79.776268 144.0
80.228462 148.0
81.569344 244.0
82.333328 192.0
83.095428 160.0
85.138123 180.0
86.537766 168.0
86.584061 144.0
87.384148 168.0
87.889099 184.0
87.99736 272.0
89.188866 152.0
89.497406 104.0
89.520004 128.0
89.844208 200.0
90.437584 140.0
91.08989 144.0
92.044106 40.0
92.344154 172.0
92.384323 196.0
92.439812 176.0
92.947632 100.0
92.99369 108.0
93.009048 188.0
93.046593 612.0
93.258759 48.0
93.433754 104.0
93.915359 192.0
94.034088 224.0
94.054886 220.0
94.087105 108.0
94.402069 228.0
94.537491 200.0
94.955971 184.0
94.992821 164.0
95.008339 96.0
95.039383 144.0
95.061584 496.0
96.040855 168.0
96.5159 136.0
96.968124 172.0
98.266029 132.0
99.070709 84.0
99.14006 116.0
100.891731 164.0
101.320023 92.0
101.352081 132.0
101.767288 68.0
102.088806 140.0
103.028908 256.0
104.270287 136.0
104.59166 116.0
104.646622 92.0
104.897217 196.0
105.04493 3232.0
105.154228 152.0
105.225677 72.0
105.346176 128.0
105.526024 180.0
105.871857 96.0
106.029144 396.0
106.048668 308.0
106.171074 112.0
106.661797 68.0
106.741982 148.0
107.035286 368.0
107.079498 128.0
107.700348 52.0
108.316772 112.0
109.052147 204.0
110.03643 544.0
110.370995 144.0
110.869232 144.0
110.927917 184.0
112.301041 148.0
113.006638 60.0
114.235046 168.0
115.185814 208.0
115.971123 196.0
116.101906 144.0
116.92907 108.0
118.230492 132.0
118.455208 92.0
118.659401 228.0
119.186844 220.0
120.055626 500.0
120.208138 72.0
120.275795 192.0
120.452675 232.0
120.964378 248.0
121.016922 264.0
121.039543 8060.0
121.124237 64.0
121.152718 84.0
121.363121 92.0
121.527634 88.0
122.04422 1188.0
122.117302 48.0
122.788155 120.0
122.83448 136.0
122.889633 148.0
123.006599 164.0
123.028679 176.0
123.055893 2624.0
123.119209 112.0
123.57016 64.0
124.056015 356.0
125.059242 268.0
125.529335 92.0
128.016861 128.0
129.412384 56.0
129.958649 232.0
130.067581 148.0
131.312225 88.0
133.80777 88.0
135.032028 1092.0
135.056259 72.0
135.086334 68.0
135.104843 172.0
135.178879 48.0
135.285355 72.0
135.88562 40.0
136.039291 344.0
137.045074 524.0
137.921021 204.0
145.020264 216.0
146.059967 108.0
146.08403 140.0
147.079254 168.0
148.03186 164.0
149.040985 176.0
150.051468 392.0
150.895874 228.0
150.979019 196.0
152.069473 920.0
152.130661 160.0
152.21904 124.0
152.494202 40.0
158.059586 108.0
167.224655 60.0
168.982056 188.0
171.060867 184.0
172.077576 472.0
173.925903 184.0
173.97052 64.0
174.95903 48.0
175.92392 160.0
184.113846 56.0
185.063004 168.0
185.122787 216.0
185.870773 116.0
186.068909 148.0
186.12738 172.0
186.201981 104.0
186.571533 96.0
193.060349 268.0
194.930618 136.0
197.042709 176.0
198.135284 196.0
199.067902 208.0
200.074631 360.0
201.027237 132.0
201.078552 400.0
202.084061 152.0
203.217422 64.0
209.349136 56.0
210.078369 120.0
210.127411 232.0
212.033066 196.0
212.078491 220.0
213.08934 88.0
215.093643 356.0
216.089539 360.0
216.827484 144.0
228.053558 100.0
228.637054 48.0
229.082443 148.0
231.847443 120.0
233.83371 56.0
240.073166 172.0
241.047043 232.0
244.098969 196.0
244.107376 132.0
246.132233 228.0
248.903503 140.0
257.082306 152.0
260.326721 68.0
263.974701 80.0
270.308502 92.0
271.173096 120.0
271.500946 212.0
272.101868 856.0
272.183533 136.0
273.101471 188.0
273.271515 124.0
289.184662 232.0
325.719025 64.0
466.564178 72.0
600.394592 68.0
654.6745 36.0
682.411804 20.0
683.400085 188.0
839.038452 200.0
932.117249 148.0
969.752197 188.0
969.795532 152.0
988.385864 56.0
1028.494629 72.0
1030.883301 180.0
1040.144775 224.0
1047.475464 152.0
1064.336548 84.0
1102.391235 264.0
1125.835938 172.0
1130.602783 208.0
1131.653687 204.0
1137.224609 208.0
1150.418335 108.0
1170.263184 144.0
1184.639893 172.0
1201.110718 100.0
1201.952515 192.0
1239.36377 120.0
1239.588013 240.0
1240.856689 204.0
1251.311401 232.0
1253.748657 96.0
1254.32666 124.0
1258.96228 132.0
1264.229126 148.0
1265.00061 196.0
1267.500854 88.0
1268.301636 152.0
1269.492798 132.0
1283.195312 184.0
1284.564575 176.0
1298.419678 56.0
1303.250977 48.0
1309.164062 188.0
1310.489502 144.0
1310.583252 88.0
1313.870972 256.0
1317.264038 156.0
1330.154053 124.0
1330.654907 136.0
1338.143799 176.0
1340.941162 148.0
1349.284912 208.0
1353.850952 188.0
1357.661865 228.0
1360.112427 200.0
1362.109863 44.0
1365.02771 140.0
1369.318237 232.0
1370.032837 208.0
1375.327515 40.0
1375.910767 220.0
1377.247314 200.0
1379.382935 176.0
1382.852051 204.0
1383.858887 120.0
1402.103516 212.0
1402.431396 176.0
1402.625244 116.0
1413.380005 100.0
1413.626953 204.0
1417.85083 160.0
1423.950439 52.0
1428.445435 176.0
1437.758545 144.0
1440.219971 172.0
1440.552368 148.0
1459.340576 132.0
1460.907349 96.0
1464.538452 176.0
1467.106445 148.0
1468.776611 220.0
1470.775757 256.0
1471.691895 156.0
1471.821777 212.0
1475.489258 172.0
1478.602661 160.0
1479.804443 120.0
1480.930176 140.0
1481.037476 184.0
1482.868774 164.0
1492.3573 72.0
1494.8573 168.0
1503.496338 208.0
1503.982666 144.0
