>compound CandesartanCilextil
>formula C33H34N6O6 
>ionization [M+H]+
>parentmass 611.260254
#inchi InChI=1S/C33H34N6O6/c1-3-42-32-34-28-15-9-14-27(31(40)43-21(2)44-33(41)45-24-10-5-4-6-11-24)29(28)39(32)20-22-16-18-23(19-17-22)25-12-7-8-13-26(25)30-35-37-38-36-30/h7-9,12-19,21,24H,3-6,10-11,20H2,1-2H3,(H,35,36,37,38)
#inchikey GHOSNRCGJFBJIB
#Ion_Source LC-ESI
#Instrument qTof
#Compound_Source Isolated
#PI Sirenas
#Data_Collector Ed Esquenazi 
#Scan -1
#Precursor_MZ 611.261
#ExactMass 0.0
#Charge 1
#CAS_Number N/A
#Pubmed_ID N/A
#Smiles N/A
#INCHI_AUX N/A
#Library_Class 3
#SpectrumID CCMSLIB00000006590
#IonMode Positive
#UpdateWorkflowName UPDATE-SINGLE-ANNOTATED-BRONZE
#LibraryQualityString Bronze
#TaskID d19310cd93df49b68e9fcbec27720eb5
##Scan# 2
#SpectrumFile CandesartanCilextil.mgf
#LibraryName fda_library.mgf
#MQScore -1
#Organism fda_library
#TIC_Query 0
#RT_Query -1
#MZErrorPPM -1
#SharedPeaks 0
#MassDiff 0
#LibMZ -1
#SpecMZ 611.261
#SpecCharge 0
#internalFilename spec-00000.mgf

>collision 10
101.859558 44.696381
104.575356 14.43477
106.537704 12.31303
109.100769 116.472298
109.134323 3.400758
117.043282 14.02838
127.110428 66.943626
130.064209 25.51379
139.055878 1.032143
140.04628 11.425
145.039536 7.11579
145.818893 9.616781
146.188812 8.401613
146.260529 15.54885
146.421417 3.472222
147.054993 1909.988037
147.094299 16.80278
147.124084 6.081757
147.343414 21.216
147.450867 10.97963
147.529846 10.03214
147.61972 5.489815
147.694305 2.88
148.001495 15.09257
150.263443 4.738461
151.049927 47.397018
151.271332 6.602
152.282806 10.81286
153.063049 22.353729
157.897614 30.673361
158.962051 13.21818
160.376953 8.668056
160.981094 8.2
161.032455 295.76059
161.070679 27.475
161.259628 12.98116
161.334396 6.202273
165.071762 65.714188
167.082031 18.78125
173.03009 72.141533
173.068634 22.040001
174.14859 9.703125
174.197205 13.53885
174.886078 5.207258
175.059753 19.113041
175.086502 3684.711914
175.120804 2.472059
175.138153 13.6133
175.161041 13.48204
175.25528 22.16045
175.318817 15.23806
175.392517 3.209
175.415756 11.808
175.512329 5.852083
175.530579 10.22311
175.59993 3.805556
175.620773 10.30313
175.70134 6.85307
175.85817 13.00619
175.891907 12.37783
176.042694 18.41124
176.116989 16.772449
176.399841 16.117439
176.786682 4.628125
177.797195 16.06275
178.073532 44.799999
179.082581 63.490372
179.217606 4.467857
179.829529 14.71605
180.081467 92.333542
181.09642 35.92738
185.068741 27.419531
187.049835 290.9953
187.202164 5.725
187.994431 7.5
188.04686 104.9925
188.343887 5.328948
189.066025 2878.280029
189.12709 29.63619
189.145981 12.23788
189.177887 10.02845
189.262131 4.68
189.521744 2.9
190.431274 4.72803
190.844376 5.465322
190.984573 8.825
191.023315 9.05
191.041473 41.581348
192.04541 30.94454
192.079865 1993.0
192.124878 1.2
192.138168 12.10536
192.171143 3.175
192.221741 10.37647
192.235809 4.423148
192.308167 3.800862
192.346878 9.09877
192.573624 5.045371
192.626663 12.62563
192.651108 5.033065
192.801315 3.2
192.834778 11.28167
192.864273 6.000758
193.158218 6.409884
194.09993 80.502159
195.08667 99.05349
195.684372 8.781451
202.08316 21.45899
203.068176 8.869262
204.085327 21.837879
204.79631 11.245
205.074936 72.352242
205.096359 63.627819
205.813339 3.81
205.888916 8.889894
205.94487 7.11579
205.988632 3.200806
206.085892 9.178704
207.090775 3107.459961
207.110962 10.63316
207.151962 7.322059
207.164322 12.85127
207.188705 10.00156
207.212158 12.72256
207.273697 28.647659
207.305099 8.312805
207.379349 16.161079
207.442291 23.28096
207.568604 40.695541
207.619568 8.235526
207.734406 4.204167
208.076599 23.734131
208.10527 73.908127
209.107285 147.508606
216.081207 38.63728
218.096954 76.962067
218.274597 4.821429
218.619095 4.203846
219.074326 52.830219
219.339813 4.023148
219.799179 14.43311
220.108459 82.379593
220.808929 6.490909
221.068176 189.598404
221.103561 37.393089
223.119217 56.079369
223.259232 8.960555
225.455734 22.81695
231.308151 8.596698
232.017624 4.388462
232.096863 11.80237
232.515686 5.406428
233.025009 8.207758
233.07016 1931.896973
233.105515 1674.095947
233.169464 5.533333
233.2005 15.00351
233.246796 57.972858
233.426376 23.00909
233.472153 6.666667
233.55127 3.620162
233.58316 7.002084
233.62822 25.410629
233.685623 14.75238
233.71788 4.29
233.767532 14.61813
233.793655 18.077999
233.833313 8.235
233.857025 19.29113
233.95343 12.95119
234.445297 12.23477
234.786316 12.20143
235.045517 17.5674
235.122223 2600.23291
235.18634 13.50417
235.212799 4.202273
235.228989 9.824243
235.261002 3.209
235.304535 12.20634
235.339218 29.76726
235.371292 9.421552
235.398193 16.03916
235.432693 4.489
235.607971 4.8
235.742538 20.90313
235.79425 8.506578
235.976562 5.0
235.99794 10.60161
236.147614 8.405001
236.328384 3.24
236.484329 8.84939
236.885941 3.2
239.084656 17.689819
239.995438 8.275
241.608322 8.608334
242.863434 4.16
247.086105 71.281677
248.985352 33.450001
249.102631 69.34359
251.083969 24.117479
251.126923 40.723259
256.338531 6.497059
256.931946 14.51029
261.102478 84.192047
261.345886 5.568421
261.487823 5.826613
261.537109 2.4
261.582245 13.60071
261.683685 34.56905
261.723236 13.03707
261.773438 23.89452
261.80307 3.248529
261.891663 3.827174
261.959045 6.601471
262.111877 80.389137
262.894745 5.800675
263.053375 12.07222
263.071075 24.65
263.129059 6512.625977
263.199036 16.596001
263.222015 3.2375
263.25351 8.714286
263.280762 17.426849
263.315186 16.84268
263.341858 18.001221
263.35611 6.867593
263.401306 14.55313
263.414825 17.472
263.435913 5.119118
263.456635 12.91645
263.493805 54.809059
263.511078 12.64802
263.533997 18.3125
263.566376 18.20109
263.589233 18.66983
263.66391 18.81509
263.726532 23.497219
263.94577 24.519569
263.963684 10.81096
264.516479 12.12821
264.816071 7.162
265.178284 12.10471
265.252167 10.00336
266.011932 2.632895
268.347198 12.5391
280.10257 10.4671
282.115631 12.97885
283.11438 17.408649
283.142365 7.017858
289.103943 13.33611
289.150055 29.388241
289.172546 56.264
294.102325 73.071327
295.10199 41.40012
296.490692 5.004787
297.103424 39.269508
302.18457 5.077564
304.087769 11.90625
306.110321 17.817249
307.086731 28.24559
307.105774 11.82845
307.549164 16.753851
308.120331 20.64333
309.10141 157.665604
309.724609 9.074074
310.108856 183.777802
311.335724 3.688889
311.508057 4.083333
315.215363 6.576087
317.175903 70.117523
320.096344 14.84512
320.474792 9.4
321.099243 28.02017
322.097778 69.812309
322.134338 8.629082
322.42807 10.245
323.125763 98.543419
323.149139 51.267391
324.109833 111.576302
324.635986 12.41591
326.09906 31.296301
326.127228 26.622339
333.0867 15.14079
333.222717 28.426861
334.094452 38.99725
334.895203 3.657143
335.952728 10.20086
336.010254 11.68411
336.039215 8.278226
336.076141 18.24456
336.16864 1.045
336.195221 7.038095
336.236664 12.21453
336.269043 25.763651
336.290955 13.07108
336.397339 20.42462
336.437653 17.42881
336.659454 10.08269
337.03775 9.821491
337.097198 528.273621
337.246948 29.78945
337.368927 3.9
337.938873 8.207692
338.008911 6.457143
338.045929 21.688
338.104675 9649.305664
338.185913 17.57926
338.208923 20.194521
338.307831 62.862961
338.334412 23.008329
338.356445 42.24757
338.383514 56.880459
338.427216 22.400709
338.451813 12.30625
338.494781 21.95652
338.528015 15.81928
338.58136 39.329979
338.641815 18.87878
338.660706 6.755645
338.675446 44.766609
338.74115 15.85489
338.76355 28.20504
338.907959 16.408331
338.949554 14.84706
338.996429 47.63245
339.444122 14.56
339.817871 12.10588
340.501801 3.869828
341.252869 11.66429
341.787659 2.75625
342.42395 8.417753
344.121277 7.000714
345.207397 12.325
345.589355 9.120714
346.945557 6.806428
346.966705 15.85597
347.042786 65.562393
347.07251 8.555769
347.121033 25.33283
347.26593 2.725
347.593292 3.264474
348.068634 9.745689
348.100494 32.648609
348.406738 16.5868
348.540955 6.812755
348.630768 13.72308
348.695648 17.739651
348.729736 12.59459
348.848694 9.409042
348.918915 17.82069
349.072845 8.891666
349.108246 5425.951172
349.183197 47.358501
349.223175 15.20147
349.266327 2.689286
349.305603 39.80846
349.336945 46.888988
349.416656 56.793739
349.499298 11.31221
349.564972 25.473511
349.620178 16.40523
349.664215 28.02738
349.701324 21.98118
349.730164 25.87208
349.750031 6.824019
349.778229 12.77052
349.89975 28.21497
349.984283 9.001389
350.092499 1859.244995
350.253937 13.86466
350.365631 11.45682
350.431641 4.444565
350.45105 10.93333
350.50528 17.012289
350.58136 19.420509
350.603668 5.388462
350.65033 17.07406
350.753448 11.83311
350.778748 14.6
350.93515 20.286779
351.0336 10.26154
351.124268 38.42625
351.156799 55.156231
351.58078 12.66401
351.789764 19.55077
351.808075 10.31667
352.035278 43.95023
352.107788 1546.925049
352.21814 3.755769
352.41803 31.24313
352.475464 24.821091
352.866882 4.53629
353.140656 20.130911
353.383301 10.60933
353.613312 13.16538
353.749634 10.4632
355.38739 7.26579
356.903595 12.20549
360.113403 21.90745
363.799469 4.489
364.11792 127.556602
364.848907 10.081
364.873291 8.129021
364.935028 16.932899
365.091125 26.00275
365.136414 93.8125
365.193329 10.31034
365.233337 13.52821
365.665283 5.020454
365.778595 8.531363
365.931488 9.45606
366.133087 203.025696
366.226776 19.604679
366.297607 3.313636
366.417511 34.169048
366.697693 3.159211
367.004028 3.696154
367.120178 5540.623047
367.200409 67.800362
367.281525 59.923561
367.338074 24.626261
367.36145 4.865789
367.399078 51.26881
367.430481 21.4
367.477692 35.48753
367.516754 24.008329
367.548889 22.533991
367.597412 35.573139
367.61731 6.688095
367.657532 15.92369
367.6828 15.01097
367.733276 5.808333
367.75119 25.56312
367.810577 14.50474
367.855316 8.933889
367.929718 22.89134
367.960266 22.453951
368.858734 4.705882
369.100983 16.247351
369.725739 5.645
370.095947 21.051649
374.313995 19.517389
374.889801 5.851923
377.013763 22.405399
377.139648 1046.719971
377.257812 8.846296
377.372681 4.207258
377.548096 31.92557
377.622864 8.978571
377.670105 4.865789
377.805328 9.675909
377.954102 2.803846
378.125214 131.961594
378.213074 2.89
378.407379 3.413333
379.165863 23.00672
379.497711 6.168023
380.138855 1396.17395
380.32605 16.81004
380.42276 3.481
380.888763 13.01023
380.954285 4.75625
381.473175 14.5329
381.506378 3.413333
381.560791 11.0061
381.928436 3.38
383.132233 8.600863
385.382629 9.005487
385.683105 9.045149
386.307159 26.241659
392.585815 18.112499
392.621552 21.248489
392.66507 4.825
392.717834 11.09633
392.752258 5.009091
392.828156 11.40278
392.864105 13.4
392.89566 37.656582
392.915558 11.68913
393.011078 40.407009
393.088928 22.00219
393.132324 74.173866
393.178528 6.891129
393.655975 12.4
393.835754 16.337111
393.861237 12.79527
395.053009 15.09138
395.150146 13914.200195
395.259796 22.224239
395.314819 12.49812
395.34906 7.757727
395.409729 17.886721
395.459686 59.745708
395.516907 46.121689
395.538116 14.12293
395.579224 75.346893
395.639893 47.4132
395.670746 61.423409
395.715027 11.48727
395.75061 31.938841
395.786224 56.301571
395.84845 70.346848
395.988251 33.68153
396.054047 16.275
396.121643 69.62883
396.22937 53.876801
396.327515 7.714286
396.375763 13.73245
396.429443 13.25452
396.833069 8.346951
396.880951 42.162441
397.013336 22.60058
397.038605 15.61046
397.183167 29.551701
397.711151 8.311154
398.154999 26.07291
399.135651 26.655689
400.09436 4.000806
411.100983 9.814062
411.151245 8.26875
413.164307 211.603302
413.354187 11.20735
413.927277 6.243085
415.273163 5.025
416.206604 9.504032
416.47464 3.645
417.393768 18.898769
420.030579 16.764709
420.222076 8.800714
420.300323 28.148849
420.332184 7.553846
420.361877 81.809669
420.421936 161.713699
420.455383 201.624695
420.487213 23.008699
420.539093 112.931503
420.561432 22.89122
420.598633 196.401306
420.622131 7.605
420.680176 179.007904
420.737396 129.020905
420.772736 14.62976
420.814423 74.400864
420.856934 6.628125
420.873505 20.21067
420.902863 57.724159
420.995605 89.908524
421.072449 124.404999
421.122894 19.383699
421.211945 24.852119
421.255737 73.01606
421.314514 59.65234
421.793945 8.788236
421.844208 52.872959
421.975494 15.69031
422.102142 39.987499
422.161041 109170.601562
422.20874 33.600208
422.402283 26.734579
422.43631 9.087999
422.467041 30.82098
422.582977 52.970348
422.741547 26.281851
422.819702 10.9391
422.880096 35.82069
423.006073 242.282303
423.4216 2.311364
423.552429 68.854408
423.793182 58.59729
423.815216 35.590141
423.861816 77.251289
423.888245 64.819633
423.930359 117.041199
423.968506 58.157299
424.080231 12.98409
424.115204 98.054001
424.159729 5250.416016
424.244629 254.237305
424.308868 166.363007
424.398376 117.115501
424.67334 65.311378
424.829407 23.65942
425.020447 60.497662
425.062805 43.18911
425.155701 16.21294
425.200165 3.6
425.428925 42.952839
425.468384 13.40105
425.720978 17.350639
425.856415 19.445101
425.930328 13.551
426.043488 3.375
426.138916 17.47237
426.187164 5.65
426.539093 10.175
426.702972 14.12654
426.943787 30.665701
427.563965 2.605
427.650269 12.27656
427.741791 40.313049
427.872925 3.072727
427.917969 2.89
428.067261 5.568421
428.132019 3.466667
428.298401 8.432142
428.398407 16.108049
428.635956 13.88218
428.672058 6.941667
429.013824 9.061765
429.8638 7.000714
429.89743 3.829762
430.597382 10.00042
430.699738 12.61
431.406281 7.60061
431.550812 2.604545
431.984924 13.10745
432.277679 11.33373
434.663696 3.913636
435.643738 8.832258
438.458282 2.801667
438.889191 4.8125
439.173553 16.1717
441.063263 20.8263
441.164368 799.569702
441.735138 8.989062
442.488556 10.80161
443.099854 9.825
444.228302 9.175
449.121368 10.17175
449.174164 32.683361
458.101379 3.82
464.160095 8.875
467.176819 10.0329
477.180481 17.398029
487.233124 11.90625
495.241852 11.57609
505.218018 2.828572
506.971649 6.282692
519.974182 2.775
523.243408 191.852097
539.225952 81.533371
562.979675 2.205555
567.234253 9.602273
607.488281 19.29258
607.537292 3.472222
611.260254 109.619698
611.426392 14.49767
611.614807 2.803846
611.865662 15.84381
611.958984 9.230224
913.877502 7.722458
983.09314 36.13924
1184.233032 4.600676
1276.40686 13.225
1362.651245 11.84545
1696.624146 19.35902
