>compound Ranitidine
>formula C13H22N4O3S 
>ionization [M+H]+
>parentmass 315.148773
#inchi InChI=1S/C13H22N4O3S/c1-14-13(9-17(18)19)15-6-7-21-10-12-5-4-11(20-12)8-16(2)3/h4-5,9,14-15H,6-8,10H2,1-3H3/b13-9+
#inchikey VMXUWOKSQNHOCA
#Ion_Source LC-ESI
#Instrument qTof
#Compound_Source Isolated
#PI Sirenas
#Data_Collector Ed Esquenazi 
#Scan -1
#Precursor_MZ 315.15
#ExactMass 0.0
#Charge 1
#CAS_Number N/A
#Pubmed_ID N/A
#Smiles N/A
#INCHI_AUX N/A
#Library_Class 3
#SpectrumID CCMSLIB00000006508
#IonMode Positive
#UpdateWorkflowName UPDATE-SINGLE-ANNOTATED-BRONZE
#LibraryQualityString Bronze
#TaskID d19310cd93df49b68e9fcbec27720eb5
##Scan# 1
#SpectrumFile Ranitidine.mgf
#LibraryName fda_library.mgf
#MQScore -1
#Organism fda_library
#TIC_Query 0
#RT_Query -1
#MZErrorPPM -1
#SharedPeaks 0
#MassDiff 0
#LibMZ -1
#SpecMZ 315.15
#SpecCharge 0
#internalFilename spec-00000.mgf

>collision 10
101.02951 88.394623
101.545181 10.0498
101.57032 6.865196
101.83625 16.138069
102.023476 51.889832
102.037338 1225.508057
102.064713 12.00556
102.09597 15.54167
102.129578 14.76587
102.159599 6.102564
102.296738 8.674243
102.321968 10.66667
102.335037 8.827381
102.342529 8.342054
102.360123 4.017857
102.374207 11.00463
102.70182 9.666667
107.04847 109.8592
107.070427 17.00379
108.055367 45.69492
109.027161 77.204002
109.243477 16.946699
110.059212 190.535904
110.096397 300.849091
110.188629 10.74405
110.323288 8.047619
110.352219 8.491228
110.520645 3.857143
112.130882 8.027778
113.072281 163.229004
113.936714 5.025641
114.077682 779.292786
114.189323 4.069444
114.315849 13.72115
114.386703 13.8023
114.900513 12.20513
115.032471 120.9133
115.064484 11.84314
117.047806 498.249603
117.092377 5.668333
117.193245 7.833333
117.362526 5.747549
118.031136 151.3013
119.0467 9.561992
121.07972 32.15625
121.350189 6.716667
122.057961 32.112621
122.084145 24.12406
122.097664 76.124268
122.210335 8.847222
122.822594 8.086538
123.358665 38.008492
123.370689 6.666667
123.382278 14.85952
123.401604 4.033333
123.411903 10.52083
123.498222 21.341669
123.536896 3.010417
123.567749 29.46957
123.608261 42.15456
123.653854 14.63158
123.668106 3.791667
123.696617 40.5191
123.711609 23.645901
123.72258 11.05833
123.776688 9.057693
123.825027 17.878401
123.947105 3.333333
123.976158 4.833333
123.989716 11.49667
124.075714 13824.290039
124.122955 87.273087
124.139832 74.917664
124.152466 7.0
124.165016 26.335939
124.17231 53.347401
124.203613 60.0145
124.228157 18.838539
124.238197 63.09399
124.253143 35.476212
124.264961 18.095289
124.280418 8.699275
124.288055 45.943932
124.296181 17.06061
124.307449 12.01389
124.32502 7.5
124.336449 17.395321
124.375465 59.576759
124.393585 11.86833
124.408432 9.338235
124.418785 54.865822
124.423958 10.04412
124.439476 14.53074
124.447243 7.338235
124.482544 8.025001
124.512009 33.21946
124.533455 28.95833
124.549706 18.673479
124.967834 7.2
125.005157 2963.080078
125.054405 11.32955
125.065071 9.35874
125.079178 146.582108
125.294792 15.74669
125.304848 6.136111
125.392097 13.74179
125.493446 5.088768
125.505005 10.56019
125.623917 17.03039
125.903397 9.763888
125.93026 6.0
126.058929 11.33712
126.497314 15.36915
127.020538 24.6
127.072861 23.79615
127.344681 37.108158
127.795403 7.810714
129.043854 29.17008
129.050217 55.49688
129.15715 8.027778
129.382416 11.63362
129.424789 6.724359
129.511627 5.736111
129.544601 34.0453
130.055542 4025.178955
130.09079 11.04529
130.103775 5.926282
130.146164 20.36536
130.173996 4.166667
130.196167 12.08808
130.209564 7.757576
130.23233 22.42157
130.290054 25.48485
130.320801 14.00113
130.346542 18.73077
130.359131 7.592949
130.374939 9.888888
130.388321 4.001984
130.467545 6.691667
130.491058 26.948999
130.519516 11.74167
130.555405 15.01961
130.64949 11.20833
130.710281 15.3869
130.754044 12.03712
130.976959 15.6832
132.042923 76.617538
135.028107 69.382317
135.066528 32.37719
135.091507 78.720238
136.042297 22.104759
136.072678 10.72024
136.272919 6.684524
137.08139 46.395302
137.105774 38.17342
137.43486 5.136111
137.988007 6.702587
138.091125 2509.612061
138.139252 4.366667
138.237411 7.053572
138.261948 4.66886
138.282471 3.773809
138.302856 8.003788
138.32811 12.07419
138.36441 4.531863
138.381058 15.42857
138.409241 18.110359
138.522827 4.888889
138.573013 6.675
138.626373 25.257839
138.682175 11.33333
138.797714 4.375
138.809937 16.7619
140.047104 11.69345
140.10585 131.159897
140.5952 4.673611
141.046463 31.81761
142.620651 5.414216
143.235123 10.28004
143.247604 4.345238
143.270981 19.50725
143.305908 5.666667
143.347549 11.67901
143.363083 5.592949
143.383453 94.31041
143.433395 20.341669
143.508896 41.064819
143.518372 7.666667
143.542038 3.6
143.580902 5.346264
143.610077 8.666667
143.687469 12.2549
143.816956 10.74755
144.076309 10437.730469
144.127991 56.846779
144.142334 74.282608
144.161331 50.309559
144.177216 4.190476
144.194016 58.160889
144.21109 2.733333
144.233688 15.57407
144.260498 10.52083
144.277542 40.410141
144.304977 3.075
144.315231 10.54167
144.324188 9.022223
144.336395 8.016666
144.362839 23.181339
144.415878 6.506945
144.424194 2.4
144.457626 3.36218
144.469681 21.395201
144.491333 11.36111
144.577179 4.013889
144.587433 9.739865
144.595642 4.66821
144.683517 9.684211
144.80101 24.40167
144.825821 6.698232
144.846756 7.057692
145.041107 67.462791
145.073441 46.226849
145.263077 4.083333
145.443787 11.88005
146.051483 164.342499
146.366409 11.00093
147.021225 723.244873
147.070618 33.76339
147.346008 10.92045
147.355652 23.068331
147.623306 15.66742
147.703873 7.347222
147.957413 15.21185
148.072937 255.1362
148.736435 8.410256
149.005035 17.25
149.546417 8.25
150.536255 8.053572
151.12706 38.36813
152.137772 12.25
152.215302 8.671296
152.236481 4.416667
152.360992 6.111111
153.037399 1401.553955
153.091599 27.222759
153.109085 8.716666
153.132629 29.98415
153.31189 18.75
153.376099 7.333333
153.397644 6.020833
153.464432 4.833333
153.475769 11.3344
153.49678 6.482143
154.054688 61.220112
154.412277 5.633333
154.758865 3.555556
156.150238 5.415
158.032135 29.64307
159.038345 22.740801
160.052032 75.35598
160.730545 7.486111
161.035995 30.59375
163.089951 45.236889
163.187698 3.760417
164.092911 720.579285
164.149002 4.007576
164.249954 11.18561
164.354126 8.689815
164.517471 5.428572
165.102661 882.809326
165.232925 4.083333
165.372574 12.34722
165.44017 8.818548
165.497482 27.97706
165.65007 8.419871
165.674545 4.681667
166.188904 12.60417
166.43045 17.411819
167.062454 328.895996
167.099457 4.0
168.20079 6.333333
169.040268 7.12037
169.156418 22.89308
169.173019 14.02671
169.20636 12.52365
169.240662 5.666667
169.407867 10.46944
170.063034 2493.304932
170.12738 19.910021
170.157791 8.783046
170.178925 5.777778
170.212296 14.91177
170.275925 6.355392
170.312332 10.49597
170.362106 7.027778
170.375031 5.888889
170.448959 31.107201
170.502899 5.395833
170.652863 6.734848
170.693665 18.001129
170.719162 13.35417
170.843765 18.0056
173.560043 6.6875
174.105865 12.00085
174.703125 14.68561
174.86409 15.00062
174.912399 5.0
174.973557 26.27335
174.995529 18.02273
175.00882 104.847
175.021378 20.3887
175.0495 15.75198
175.066803 23.243111
175.087234 8.797454
175.099716 35.773251
175.1185 24.12117
175.144241 19.190809
175.171982 24.0229
175.183014 44.484951
175.207245 38.774151
175.231674 83.350372
175.238846 22.641029
175.279999 23.41667
175.299042 73.039177
175.315735 10.52083
175.355011 20.695511
175.376846 19.356779
175.384323 18.0005
175.441025 12.975
175.481903 29.835649
175.536392 4.054824
175.556335 11.25379
175.675766 26.457649
175.769562 19.861111
175.92807 23.84701
175.977158 25.14966
176.04866 40275.539062
176.220245 78.462433
176.23407 87.027199
176.259506 38.303761
176.285187 63.213322
176.321777 15.37315
176.334183 42.33189
176.355804 95.657227
176.372406 78.11145
176.387619 14.12927
176.40834 104.160202
176.431046 48.129761
176.463394 28.80949
176.475754 15.82805
176.491211 42.697971
176.51059 84.327507
176.528931 12.66912
176.540329 30.633261
176.553604 16.109079
176.571991 24.34565
176.592361 37.134998
176.603378 7.939394
176.623596 66.235039
176.642593 21.347219
176.658203 57.993568
176.685577 21.9939
176.705597 25.904119
176.747131 20.513889
176.766022 40.557419
176.789658 92.977043
176.820358 65.5578
176.847595 52.097012
176.857742 17.194441
176.89328 62.60239
176.964554 21.45833
176.979843 24.287069
176.991852 27.73752
177.099762 225.599594
177.176773 18.151239
177.537842 11.42178
177.682175 13.26136
177.861679 7.003788
177.876404 7.682971
178.030746 103.881798
178.110672 182.324799
178.187393 9.370833
178.229828 4.844298
178.283615 8.446428
178.382492 5.049603
178.758469 9.013888
178.786957 24.71002
179.347015 14.27273
179.863098 5.444445
180.078079 7.656609
180.274887 8.595239
181.040833 3.802778
181.080231 466.826691
181.129715 3.670455
181.28833 6.335318
181.373184 9.075618
181.466507 9.68889
182.8396 3.402778
187.073227 17.46261
187.311203 23.00231
188.047668 836.949707
188.0905 9.703947
188.107666 2.854167
188.139725 14.81548
188.249939 3.857143
188.297226 3.34375
188.330658 14.94092
188.384048 3.926282
188.483582 19.161011
188.588547 8.005555
188.990417 12.97961
190.010284 12.74167
190.749542 4.531863
191.118057 1058.329956
191.182098 7.468334
191.211929 6.225
191.225861 6.35
191.34082 11.93426
191.386871 27.02091
191.398544 10.01852
191.446671 4.673611
191.567032 14.08333
191.607956 6.666667
191.677795 11.13286
191.688583 15.04167
191.977829 4.120098
192.002258 56.75721
192.044907 98.566116
192.56987 9.204166
193.055725 427.175415
193.628418 4.080128
195.070343 181.066299
195.281448 7.857143
195.389801 3.336538
196.042435 131.453598
196.14946 7.242816
196.246506 20.14414
196.295334 7.108871
196.490356 9.445371
196.762939 12.84052
197.134232 33.054821
205.078903 36.336151
206.08252 80.305351
207.090454 37.040939
208.45874 6.880952
209.070801 143.736801
210.414795 25.17083
210.53804 5.875
210.578705 6.671568
213.48642 14.11667
213.789398 24.957939
213.90538 5.510417
214.056107 9.666667
214.162994 9.695513
214.72673 8.148809
215.090775 14.21894
215.121201 1525.499023
215.202866 4.703703
215.345764 5.401515
215.374512 4.387821
215.433502 3.926282
215.565338 5.357143
215.706924 5.592949
215.855301 31.752081
215.958817 9.013333
217.19072 6.482143
221.966217 12.21894
222.402145 6.306159
222.744888 17.975309
222.782669 16.860041
222.815826 66.96347
223.019623 3.686404
223.037415 18.777781
223.061188 7.708333
223.088684 166.448502
223.206696 6.354167
223.376373 6.001543
223.414124 4.408333
223.456238 3.703704
223.482239 8.333333
223.564789 26.281321
223.623978 12.60417
223.721542 9.561992
224.028183 48.67675
224.043228 58.306011
224.097382 9697.929688
224.162506 88.823723
224.184891 5.675
224.210907 25.55525
224.231766 13.01515
224.244827 12.25926
224.283661 51.00359
224.303421 28.662279
224.316727 7.761905
224.356857 47.532261
224.386261 3.185606
224.399033 29.33654
224.410965 27.913651
224.445404 5.025641
224.459427 67.746719
224.481979 30.6604
224.569611 33.297619
224.586151 8.380815
224.623459 17.816669
224.67308 29.07785
224.689392 42.44643
224.706619 30.89389
224.762375 23.5947
224.820969 8.684524
224.842239 8.341666
224.920624 17.789631
225.008545 5.856061
225.222656 14.11667
225.525574 9.171748
225.860092 18.827221
226.383255 11.34626
226.582047 11.33514
226.713074 5.041667
227.347336 2.816667
227.956207 9.66821
237.992447 23.710529
239.047943 97.195396
239.083191 66.087212
239.636627 8.009616
239.852097 3.677083
240.092407 160.171402
240.488266 7.335318
241.100479 461.644287
241.188416 12.59868
241.3741 8.022223
241.530869 8.022223
241.763168 11.66667
241.795319 14.55136
242.510696 22.324329
242.845261 9.006945
252.079926 47.447578
252.437286 15.20455
252.545914 7.630952
254.129974 244.115997
254.365494 3.694444
255.488892 9.631173
268.389923 47.23127
268.413879 47.859829
268.436005 10.70833
268.504028 42.21624
268.548737 13.8165
268.578522 13.41879
268.602081 27.896549
268.624146 16.067209
268.641235 13.70379
268.66153 42.12368
268.698334 7.005983
268.818207 7.520833
268.857971 4.408333
268.983337 9.880051
269.034821 9.748984
269.13559 47.605171
269.251709 6.444445
269.477295 36.63303
269.560059 6.684524
269.675385 18.90542
270.037231 12.84614
270.090454 24563.720703
270.159332 64.228111
270.200165 13.68333
270.239471 101.792603
270.257294 36.440941
270.276367 113.154198
270.297119 71.462372
270.320618 74.247307
270.347778 9.720239
270.364044 86.918777
270.377167 48.68829
270.403412 95.384613
270.426575 97.867233
270.44104 25.514879
270.456024 89.599716
270.496918 56.166599
270.521515 49.843262
270.554199 66.603142
270.591156 109.641701
270.634857 27.192829
270.678864 19.21261
270.712067 50.384331
270.802216 29.34478
270.843719 23.17182
271.345367 33.142189
271.793671 19.26623
271.904572 30.16534
272.193848 5.801667
272.251434 7.054825
272.636169 34.181629
272.694519 22.8374
272.951996 4.8
273.181946 5.371913
273.366333 23.495621
273.434662 8.260802
273.475464 8.698232
274.154572 8.506945
275.565155 8.633772
281.489655 21.15723
284.101715 88.854118
287.858246 11.77174
296.342438 10.3375
310.644623 12.81333
310.936249 14.94697
311.257965 7.358974
311.343903 10.02216
312.058228 13.06667
312.701996 4.349638
312.788116 9.144048
312.94812 5.668104
313.004761 20.95833
313.052734 20.338539
313.08078 31.85944
313.12851 65.597023
313.167969 47.979511
313.188812 118.350502
313.233582 146.431503
313.26474 54.386581
313.304321 134.502594
313.347656 107.079498
313.362396 24.06888
313.397461 57.650249
313.422729 110.6978
313.457855 23.551359
313.484375 178.6073
313.518951 90.853622
313.557587 77.882568
313.575897 54.188541
313.627106 96.200607
313.654755 28.418791
313.672394 51.22673
313.790985 10.2942
313.825867 38.36462
313.879425 17.67341
314.039825 80.174301
314.149567 28.62986
314.368164 33.761391
314.709076 18.97961
314.747742 6.001667
314.784729 17.00333
314.805481 8.533334
314.846497 11.47704
314.900574 16.48349
315.019379 3.736111
315.056396 47.38549
315.088318 272.634705
315.148773 89815.773438
315.497742 184.7341
315.574615 29.276159
315.659607 144.817993
315.711884 236.781998
315.737762 138.527496
315.772003 135.848297
315.79303 86.866913
315.829163 132.1427
315.851898 212.662704
315.876617 124.502197
315.932129 184.852097
315.955048 58.096481
315.981628 98.236458
316.062714 132.229095
316.117157 45.99778
316.310486 82.234993
316.373566 12.375
316.391876 17.563971
316.410187 33.216209
316.465546 13.015
316.520966 33.966
316.548309 32.755249
316.582306 81.242157
316.623169 41.894852
316.688721 39.292938
316.753387 19.260281
316.924377 11.33333
316.989868 91.540909
317.104828 38.981411
317.193939 26.20833
317.334839 23.01948
317.43869 17.35294
317.736145 31.00775
317.766724 19.34141
317.795898 25.92063
317.903809 25.375
318.027374 4.416667
318.145264 29.66045
318.281799 11.70379
318.496277 6.25
318.54248 4.013889
318.952454 10.4375
319.039612 10.41667
319.127045 27.376789
319.188568 7.005952
319.21344 13.04012
319.375061 12.37186
319.561615 6.67803
319.910278 17.58828
319.950409 6.333333
320.348419 11.13038
320.514374 16.72024
321.109436 6.84375
321.169617 7.0
321.476166 6.095238
321.9422 5.939394
322.066528 10.06618
322.616333 7.291667
322.784271 9.721774
322.840607 7.008333
323.497772 7.729167
324.695496 21.260851
324.957367 7.001667
326.665405 9.920635
327.027069 16.20833
328.006042 11.9616
336.343658 10.20833
741.898438 6.449713
1056.683105 4.259615
