>compound MLS001076466-01!7-(2,3-DIHYDROXYPROPYL)THEOPHYLLINE479-18-5
>formula C10H14N4O4
>ionization [M+H]+
>parentmass 255.11
#inchi InChI=1S/C10H14N4O4/c1-12-8-7(9(17)13(2)10(12)18)14(5-11-8)3-6(16)4-15/h5-6,15-16H,3-4H2,1-2H3
#inchikey KSCFJBIXMNOVSH
#Ion_Source LC-ESI
#Instrument qTof
#Compound_Source NIH Pharmacologically Active Library
#PI Dorrestein
#Data_Collector VP/LMS
#Scan -1
#Precursor_MZ 255.11
#ExactMass 254.102
#Charge 1
#CAS_Number N/A
#Pubmed_ID N/A
#Smiles Cn1c(=O)n(C)c2ncn(CC(O)CO)c2c1=O
#INCHI_AUX N/A
#Library_Class 1
#SpectrumID CCMSLIB00000084738
#IonMode Positive
#UpdateWorkflowName UPDATE-SINGLE-ANNOTATED-GOLD
#LibraryQualityString Gold
#TaskID d252d724072548979f1f6f1ced849daf
##Scan# 1159
#SpectrumFile p3-A02_GA2_01_18224.mzXML
#LibraryName Pharm_Active_Library.mgf
#MQScore -1
#Organism Pharm_Active_Library
#TIC_Query 0
#RT_Query -1
#MZErrorPPM -1
#SharedPeaks 0
#MassDiff 0
#LibMZ -1
#SpecMZ 255.11
#SpecCharge 0
#internalFilename spec-00000.mgf

>collision 10
45.917137 144.0
48.744442 64.0
48.97121 140.0
49.557949 92.0
54.739269 240.0
55.703598 256.0
59.486874 144.0
59.705055 188.0
67.000389 192.0
68.956406 128.0
70.363403 128.0
70.480316 152.0
71.014351 168.0
80.292435 236.0
81.010979 220.0
81.215324 124.0
82.522743 120.0
82.734413 144.0
82.971741 252.0
83.760429 168.0
88.004234 148.0
89.094254 156.0
90.416046 160.0
91.600845 216.0
93.396339 152.0
93.781425 168.0
94.368279 256.0
94.956963 188.0
95.335533 140.0
95.563042 144.0
96.054291 172.0
97.037651 168.0
100.032677 180.0
104.335938 148.0
104.539337 140.0
104.867218 120.0
106.594482 168.0
107.851639 188.0
107.866112 148.0
109.030945 216.0
111.045654 152.0
112.063087 156.0
114.109741 256.0
115.220116 140.0
118.388512 144.0
120.378304 44.0
120.456924 160.0
120.754189 212.0
122.030434 188.0
122.070015 136.0
123.121178 44.0
123.558838 124.0
123.662842 56.0
124.024002 196.0
124.050659 2984.0
124.13028 64.0
124.230087 92.0
125.06559 196.0
125.776627 180.0
125.814575 108.0
126.058029 136.0
132.179688 196.0
134.076523 72.0
134.364746 44.0
136.075073 260.0
137.079895 156.0
140.722672 176.0
141.716034 164.0
142.059799 144.0
142.088272 180.0
143.08168 216.0
143.427094 100.0
149.085648 124.0
152.079895 172.0
159.668106 140.0
165.907059 160.0
166.050644 140.0
169.94072 224.0
174.280243 160.0
180.073898 264.0
180.244873 72.0
180.750244 40.0
181.071869 5584.0
181.521698 76.0
181.90535 200.0
182.072388 416.0
183.029144 116.0
183.074921 208.0
183.419785 68.0
184.486038 156.0
187.101242 104.0
192.273682 88.0
197.908447 172.0
198.937531 128.0
200.075897 112.0
207.092758 164.0
213.927704 124.0
216.921921 160.0
227.143921 152.0
228.170944 148.0
234.952637 160.0
235.663239 60.0
255.115738 204.0
257.108063 200.0
301.404694 140.0
304.144043 52.0
326.699249 68.0
394.435516 48.0
523.865601 32.0
727.207764 220.0
839.221008 232.0
1003.368896 176.0
1061.578735 164.0
1085.386475 152.0
1175.472534 200.0
1180.240234 140.0
1237.870361 132.0
1268.093384 60.0
1313.84436 208.0
1326.804077 272.0
1346.947144 252.0
1350.865112 172.0
1352.02124 180.0
1356.078491 176.0
1371.778931 176.0
1379.426514 208.0
1413.976318 216.0
1431.543335 152.0
1432.326538 156.0
1444.691284 276.0
1447.711304 136.0
1473.955444 164.0
