>compound Ranitidine
>formula C13H22N4O3S 
>ionization [M+H]+
>parentmass 315.15
#inchi InChI=1S/C13H22N4O3S/c1-14-13(9-17(18)19)15-6-7-21-10-12-5-4-11(20-12)8-16(2)3/h4-5,9,14-15H,6-8,10H2,1-3H3/b13-9+
#inchikey VMXUWOKSQNHOCA
#Ion_Source LC-ESI
#Instrument qTof
#Compound_Source Isolated
#PI Sirenas
#Data_Collector Ed Esquenazi 
#Scan -1
#Precursor_MZ 315.15
#ExactMass 0.0
#Charge 1
#CAS_Number N/A
#Pubmed_ID N/A
#Smiles N/A
#INCHI_AUX N/A
#Library_Class 3
#SpectrumID CCMSLIB00000006510
#IonMode Positive
#UpdateWorkflowName UPDATE-SINGLE-ANNOTATED-BRONZE
#LibraryQualityString Bronze
#TaskID d19310cd93df49b68e9fcbec27720eb5
##Scan# 3
#SpectrumFile Ranitidine.mgf
#LibraryName fda_library.mgf
#MQScore -1
#Organism fda_library
#TIC_Query 0
#RT_Query -1
#MZErrorPPM -1
#SharedPeaks 0
#MassDiff 0
#LibMZ -1
#SpecMZ 315.15
#SpecCharge 0
#internalFilename spec-00000.mgf

>collision 10
100.022293 145.243301
100.064224 2.336539
100.101814 34.481949
100.150864 5.633333
100.241783 2.666667
100.675331 25.20833
100.789375 8.086538
100.878227 9.631173
101.014862 169.673798
101.030411 795.796082
101.072205 9.880952
101.08239 1.741667
101.100456 14.15686
101.177437 17.17452
101.31044 10.0121
101.355988 17.694441
101.386391 56.993351
101.41571 9.730159
101.45858 11.00198
101.467659 4.558333
101.481987 4.136111
101.492882 5.231482
101.502914 24.722219
101.542152 11.3344
101.559364 9.334876
101.570183 25.48243
101.580414 3.490385
101.59127 22.1696
101.60128 11.02422
101.619553 21.917959
101.636284 12.42976
101.644455 22.71249
101.660904 5.366667
101.670395 60.819809
101.681419 18.012011
101.686165 13.92399
101.708504 19.244921
101.734581 18.004869
101.744324 22.42491
101.771072 20.41346
101.808281 7.333333
101.826279 46.976631
101.83242 21.17778
101.878235 20.74107
101.892349 5.906746
101.900391 15.45468
101.944725 7.939394
101.969818 17.0651
101.989624 6.020833
102.03743 41442.210938
102.145355 35.128658
102.155426 22.926279
102.177284 49.254711
102.183052 24.46265
102.200172 102.831596
102.222923 72.904373
102.231049 52.080811
102.248421 82.747169
102.26638 43.836311
102.281197 58.958061
102.298332 65.75885
102.326515 61.647079
102.335114 22.15369
102.342529 7.022223
102.349159 51.982201
102.356094 25.8916
102.371918 41.283409
102.399529 26.521441
102.405495 17.03858
102.436592 60.343349
102.447861 23.43182
102.458389 12.5
102.472778 28.25271
102.48838 39.499931
102.506294 34.61364
102.514854 37.415001
102.529922 19.16667
102.547791 9.426724
102.557236 27.240549
102.574966 11.67876
102.587273 16.963091
102.593414 23.74506
102.600235 14.22222
102.607971 32.422218
102.618797 32.608891
102.65387 14.3985
102.736221 8.865196
102.772354 20.745951
102.920425 9.313725
102.976875 17.023149
103.076088 4.344872
103.128616 11.85417
103.193008 17.980841
103.199532 6.04529
103.458275 9.259408
103.570946 6.333333
103.683197 3.266667
103.902321 33.25452
103.928841 3.025
104.049736 637.102417
104.109795 4.666667
104.146118 4.592948
104.63047 7.625
104.803123 7.763095
105.067604 79.570442
105.377304 10.33435
105.467056 24.443689
105.616714 5.415
105.906204 5.016667
106.064247 690.837219
106.111176 3.746795
106.239723 3.011905
106.490768 9.335784
106.515976 3.35
106.523529 4.44079
106.566277 3.345238
106.612724 4.746795
106.630928 6.008333
106.664177 4.926282
106.979675 8.066667
106.998329 3.926282
107.049339 5574.103027
107.091927 27.41419
107.111084 13.97854
107.125153 21.488411
107.134453 4.333333
107.149734 14.00833
107.156013 5.336538
107.177673 13.38889
107.205963 19.687929
107.214432 5.823718
107.24044 15.37359
107.251343 22.148809
107.272308 7.55787
107.28215 16.831301
107.292747 9.019736
107.303764 9.334523
107.32888 3.066667
107.354271 3.375
107.374947 5.120098
107.393631 9.520061
107.455177 11.11111
107.471397 9.041667
107.516838 13.82692
107.53611 12.91823
107.564522 1.875
107.598518 31.52879
107.631409 9.552536
107.785965 7.826754
108.080566 926.2547
108.111687 17.534519
108.231812 2.083333
108.409431 2.695513
108.467369 4.714286
108.500656 2.14881
108.514282 5.120098
108.539764 9.240384
108.713242 11.14674
108.884308 5.394608
108.91703 2.336539
109.030052 401.622711
109.063934 231.8423
109.075111 664.445312
109.105774 14.42087
109.262215 6.710784
109.309494 6.805555
109.371368 6.675926
109.3965 15.11574
109.501198 26.300289
109.637337 6.272727
109.680603 14.44298
109.707146 9.338889
109.841522 5.391026
109.863258 8.323276
109.87587 15.52618
109.941261 14.60227
110.060051 1407.676025
110.096069 3245.291016
110.12986 26.839741
110.140663 45.27264
110.155342 5.35307
110.165787 6.041667
110.178505 18.138069
110.193771 43.681622
110.229019 2.854167
110.251282 11.68889
110.270012 16.809139
110.276085 5.225
110.308586 4.898148
110.320099 17.91078
110.363335 11.05235
110.385109 7.671053
110.407318 26.4102
110.426552 4.013889
110.469193 15.17647
110.487473 2.25
110.604576 11.78241
110.637901 25.3913
110.710648 9.741667
110.787529 9.057971
111.023598 66.892639
111.23838 11.92628
111.256729 4.009259
111.297096 13.57992
111.815414 20.51306
112.021362 79.788849
112.076523 14.33333
113.02935 54.12059
113.071465 62.17754
113.109276 36.281429
113.187836 11.49038
113.222382 11.66786
113.542252 9.703947
114.03714 246.061203
114.074707 27.70673
114.319511 5.673611
115.033539 643.195374
115.064987 4.671297
115.14653 2.416667
115.196198 26.688101
115.29998 11.33553
115.363388 12.70968
115.400757 4.333333
115.460503 10.66848
116.014366 14.4
116.048569 91.018173
116.314415 7.008333
116.468277 3.337963
116.63726 1.666667
116.977196 6.25926
117.048157 1493.587036
117.084877 8.428572
117.096146 3.708333
117.111855 3.386905
117.14077 4.823718
117.171448 10.33418
117.245819 4.481482
117.269379 11.15705
117.3032 6.787879
117.328232 10.56466
117.374886 12.3913
117.446846 16.72024
117.589882 10.08889
117.89444 6.493421
117.990318 12.94565
118.032234 460.038605
118.064186 582.22113
118.233383 3.025
118.245247 6.791667
118.266342 5.347222
118.63343 21.92598
119.057411 124.713898
119.205376 12.67
119.320213 16.89926
119.355446 20.41008
119.494286 3.816667
119.543365 8.272141
119.643425 9.32545
120.005341 8.375
120.047142 39.003639
120.08017 553.875793
120.275887 16.45343
120.474365 7.705246
120.627785 5.225
120.681503 6.818182
120.715027 3.413462
120.856628 5.347222
121.032509 11.44872
121.050194 29.496799
121.075569 3512.178955
121.124382 3.345238
121.132675 18.20635
121.184158 31.43288
121.211906 21.79167
121.239273 4.001812
121.250763 7.108871
121.262253 12.04445
121.290062 7.935
121.312164 13.79487
121.345879 6.075
121.409538 5.005952
121.503738 5.787879
121.521721 19.93895
121.592079 13.23
121.779984 2.333333
122.033897 32.161739
122.058853 318.954987
122.093178 201.854797
122.252647 4.340909
122.333435 3.727941
122.549011 7.672619
122.722031 10.7631
123.023575 116.557899
123.088654 125.3106
123.297302 12.04167
123.401962 5.633333
123.409332 7.671297
123.505966 11.09513
123.5485 17.605551
123.564049 7.969086
123.58345 40.98624
123.680374 11.26667
123.931618 8.765873
124.033707 261.814606
124.075287 1687.375977
124.121597 21.301069
124.140839 4.682971
124.157333 10.45581
124.172508 5.125
124.220314 2.125
124.272751 14.08255
124.289726 15.05318
124.305023 10.05357
124.313133 9.227151
124.338707 20.337299
124.344963 48.257679
124.3619 12.97364
124.373695 19.6674
124.38443 13.02222
124.392982 28.58028
124.421906 98.301147
124.447113 20.245001
124.454102 47.396431
124.478287 9.411765
124.521263 11.72436
124.559814 8.429762
124.653061 25.385309
124.67511 23.11455
124.699631 8.667636
124.707397 8.727273
124.742363 11.72464
124.750259 8.135
124.804543 6.357143
124.880081 8.506945
124.984291 89.521423
125.005516 28213.720703
125.053177 165.264206
125.099991 43.394611
125.106735 24.066601
125.132263 29.93128
125.139565 23.866671
125.150673 14.72297
125.157455 18.41667
125.171173 73.461861
125.185471 60.713081
125.201607 101.331596
125.216232 14.05482
125.228798 6.240079
125.251953 24.632429
125.262642 35.270828
125.275284 32.291721
125.287117 98.169693
125.305771 32.495689
125.327103 52.925701
125.342087 33.398941
125.357758 59.683231
125.390282 68.667084
125.408401 12.40833
125.434631 28.15341
125.467278 23.41095
125.474342 23.44511
125.489494 8.041667
125.506927 13.77803
125.559425 5.680555
125.61145 13.13626
125.625015 26.040119
125.638878 46.476292
125.657845 19.859631
125.719551 14.69467
125.739288 16.33378
125.756363 16.4305
125.801476 23.060659
125.969749 25.36462
126.026306 113.001503
126.070869 10.68314
126.108864 15.18526
126.422653 11.0121
126.512802 7.958333
126.54454 8.888888
126.815086 2.482143
126.864609 8.061275
126.951256 11.72727
127.074814 204.766693
127.415794 6.510417
127.503555 2.482143
127.689476 7.347222
127.73642 7.061869
127.74826 13.33854
128.050919 74.81337
128.476807 37.34697
128.504395 9.375
128.777573 15.78513
129.047272 1033.136963
129.126404 34.497761
129.141068 12.74359
129.29422 10.67083
129.310059 15.03125
129.322937 64.911324
129.342926 13.74856
129.376465 27.11746
129.397095 12.67742
129.412933 9.856982
129.42308 8.680555
129.436844 37.183109
129.478134 44.770279
129.531693 4.678571
129.562775 6.633333
129.587112 6.088768
129.603241 23.61335
129.651505 9.890432
129.70993 3.388889
129.733688 11.60333
129.780243 18.21212
129.968491 6.629902
130.022552 8.006945
130.055832 15835.509766
130.104279 68.221008
130.113266 59.638901
130.148682 67.666901
130.178314 63.466969
130.193359 27.432541
130.209778 10.36111
130.221588 4.844298
130.234619 16.63158
130.249878 31.440861
130.271454 22.349661
130.280731 20.055559
130.29454 43.389599
130.341522 16.03982
130.36058 20.85257
130.383499 8.407609
130.400055 34.135979
130.415604 5.013889
130.443588 19.921721
130.458832 28.46944
130.469925 61.667068
130.494186 16.075001
130.504181 23.81336
130.53038 7.484848
130.539886 7.020833
130.555634 5.440476
130.571686 6.740942
130.589996 8.691667
130.632156 17.23267
130.702332 19.0012
130.718246 11.41346
130.734299 10.62963
130.752274 22.51009
130.778656 8.673612
130.809738 18.53175
131.020203 86.497169
131.027466 71.990051
131.343445 9.88469
131.380325 2.520833
131.494751 20.40517
131.54686 4.366667
131.566818 12.34015
131.584778 3.25
131.649536 7.125
131.771133 30.44875
131.790283 7.938889
131.914215 8.560185
131.990829 27.646259
132.043869 2172.333008
132.081604 151.424896
132.118073 7.388514
132.142059 8.666667
132.193619 2.694444
132.230057 5.801667
132.278717 19.88497
132.314072 11.75725
132.373886 8.498677
132.417542 8.047619
132.450165 11.66667
132.48259 13.26786
132.510315 5.856061
132.542297 13.68003
132.67569 9.8
132.814957 17.70759
132.858871 3.013889
132.967163 4.033333
133.007736 102.356697
133.052032 2164.990967
133.074265 258.749695
133.115448 58.581371
133.19165 4.865196
133.203873 18.012819
133.212021 7.049603
133.267502 68.592949
133.45166 4.408333
133.505646 11.25119
133.523773 10.78704
133.742508 18.411921
133.766678 19.427219
133.802872 8.666667
134.058609 474.396301
134.083435 230.101807
134.095535 46.631409
134.137054 2.4
134.145157 1.720238
134.165375 7.969086
134.217682 2.337121
134.284592 20.44108
134.306366 4.0
134.350281 20.69231
134.38298 8.20119
134.411209 8.560185
134.451538 9.527778
134.495911 6.75
134.53627 7.334596
134.568542 7.03858
134.621017 6.095238
134.685501 7.777778
135.026108 487.164886
135.091263 4058.6521
135.141251 19.368759
135.151611 6.333333
135.162811 10.66667
135.170532 4.681667
135.199982 22.088711
135.23526 11.7902
135.244797 14.19813
135.317032 6.408333
135.359146 13.57097
135.376892 35.043839
135.384979 11.47704
135.393082 2.695513
135.429932 6.875
135.465958 2.695513
135.490265 7.363636
135.502396 6.075617
135.510498 5.681667
135.534851 27.452129
135.687836 13.84626
135.723907 10.15152
136.017914 16.08884
136.07579 199.495697
136.203888 7.352941
136.284927 27.587959
136.346283 8.755208
136.377823 18.43504
136.406815 11.61404
136.455734 6.728535
136.470139 12.25926
136.752548 10.67738
136.832458 33.836311
136.988617 14.38272
137.004959 206.735397
137.057968 3.0
137.10611 508.767212
137.138184 5.185606
137.154373 7.533333
137.163986 31.858049
137.445023 9.497093
137.571747 8.121212
138.007904 78.115303
138.01532 20.674999
138.036911 199.201797
138.074005 84.525436
138.089554 268.906311
138.196503 11.67816
138.221069 5.011905
138.253769 3.375
138.376526 4.047619
138.646454 3.025
138.835526 20.920019
139.031265 151.439896
139.151016 6.675926
139.212601 6.458333
139.397369 7.694445
139.508484 14.24242
139.923752 2.027778
140.052628 123.364304
140.382843 3.958333
140.413757 13.36111
141.541412 4.668334
141.598633 13.52006
142.042984 94.225731
143.058487 118.254501
143.547546 6.0
144.066742 52.729691
144.080841 38.251461
144.340576 9.122968
145.041962 357.737701
145.05191 28.04895
145.077957 108.607201
145.086014 18.460779
145.110535 3.416667
145.190292 2.695513
145.399963 3.342592
146.059311 317.823395
146.130936 9.647059
146.210709 12.54459
146.341141 12.00071
146.493561 10.74405
146.613876 13.95833
146.662201 6.891666
147.044098 8.034091
147.066589 825.913086
147.090149 426.653687
147.146057 7.692073
147.174332 34.817902
147.238785 9.333333
147.25029 77.229347
147.27713 9.429762
147.28627 22.8486
147.315033 9.2
147.327728 24.377979
147.399368 5.748333
147.407822 5.335318
147.454483 4.413462
147.513428 8.066667
147.555679 11.3631
147.635574 2.782408
147.688171 8.401667
147.893967 16.00952
147.999741 9.773936
148.075134 6567.796875
148.13118 32.5201
148.144012 57.052021
148.18158 18.633619
148.194138 13.98667
148.207184 16.71401
148.23085 37.052792
148.266495 4.66886
148.296158 25.851891
148.308853 11.13286
148.330048 23.14604
148.347107 34.793419
148.363098 24.236111
148.389069 67.348801
148.421204 28.22143
148.440536 35.59758
148.482605 10.02778
148.496628 39.66824
148.534256 23.722799
148.54277 7.722222
148.555603 22.181499
148.647308 8.069445
148.855957 15.89943
149.035614 72.501457
149.10849 133.935806
149.276382 6.160257
149.285965 24.51029
149.318451 4.094697
149.331909 19.53389
149.488968 4.708333
149.50708 10.45581
149.573044 11.59274
149.660004 14.98039
150.001587 25.790529
150.014496 35.56171
150.03508 253.475906
150.091293 303.721985
150.123535 3.125
150.202438 8.112655
150.336578 8.422619
150.5504 15.73563
150.621735 16.67083
150.72963 14.9481
150.767761 16.00952
150.813583 7.523809
150.908752 3.666667
151.021606 527.896484
151.043396 152.223907
151.126862 10.73016
151.156723 1.666667
151.190948 8.371913
151.228226 8.791667
151.245193 3.4
151.297485 24.385679
151.379211 4.734848
151.480057 4.963235
152.039215 93.87915
152.053116 18.10714
152.133499 12.04167
153.035507 183.042801
153.048828 47.00111
153.1651 8.284091
153.199539 10.32143
153.264633 22.91667
154.055588 172.507202
154.096451 4.022059
154.249374 2.816667
155.781265 10.67708
156.044449 34.378731
156.215286 21.164949
156.76825 15.16333
158.037888 6.680555
159.046021 276.6073
159.069992 185.326096
159.091125 147.743195
159.212509 15.81481
159.282669 10.72269
159.361877 12.81333
159.401321 8.79594
159.432068 10.48333
159.784302 24.325199
160.021942 42.820992
160.09816 231.579407
160.162079 1.666667
160.21492 15.48571
161.070312 124.861504
161.105148 160.366302
161.738495 34.853821
162.077911 206.479507
162.211456 12.71795
162.224747 6.399193
162.423096 5.002778
162.62886 6.740942
163.017136 45.110352
163.05838 57.23597
163.086349 1681.259033
163.122604 395.101715
163.174362 4.335
163.192184 4.380952
163.215042 16.30225
163.227692 7.843137
163.272476 17.2526
163.285477 6.76923
163.303024 11.11638
163.346161 24.18667
163.40007 17.347219
163.41011 12.2937
163.436661 6.755556
163.450027 22.29464
163.734787 6.033602
164.016174 215.2397
164.060867 48.317841
164.094193 700.930908
164.162399 15.00097
164.171326 47.709721
164.206985 6.334677
164.354248 8.333333
164.590591 4.44079
164.894226 14.68179
164.930435 2.720238
165.058685 31.469589
165.102448 1671.270996
165.153427 7.001984
165.162582 5.402778
165.205185 20.352739
165.251831 6.801667
165.265228 6.702587
165.302444 3.640152
165.432953 21.799129
165.500854 7.533333
165.668152 13.16667
165.784485 6.880952
165.803482 2.444444
166.035995 34.989899
166.081543 6.493421
166.421097 6.008333
167.036362 20.717421
167.062836 999.335693
167.153427 2.678571
167.338333 16.410521
167.364044 17.523649
167.478088 4.791667
167.783707 5.025641
168.047974 49.667931
170.062134 255.998901
172.412201 20.13043
174.239014 5.801667
174.781403 16.480391
174.88353 7.265351
175.044312 30.26123
175.085068 52.055328
175.157318 16.022221
175.200089 22.39629
175.379715 4.003205
176.048996 633.748596
176.093552 78.448418
176.122253 16.075251
176.255829 11.74228
176.279251 8.000926
176.298172 20.08333
176.357834 17.288099
176.376297 6.337963
176.431717 9.240384
176.482544 13.00636
176.560059 6.629902
176.607346 13.05128
176.825043 6.011364
177.035568 17.674999
177.101837 3020.637939
177.157959 4.09375
177.172165 2.003788
177.232147 4.680556
177.298386 18.02899
177.314957 2.782408
177.343216 22.43947
177.368118 16.565451
177.406265 7.782407
177.455795 14.46759
177.490768 11.12121
177.514816 19.44643
177.576187 32.837559
177.621292 14.23141
177.657196 2.444444
177.739838 9.757576
177.755768 11.37186
177.969177 4.028846
178.006332 10.00417
178.029984 739.405029
178.070679 129.2883
178.140808 2.053571
178.173538 21.67226
178.186722 4.857143
178.201324 11.79933
178.22963 9.858334
178.255539 24.361111
178.312164 10.5641
178.363083 26.659691
178.378433 26.67683
178.424301 2.671296
178.605865 6.916667
178.679977 12.51724
178.740433 9.710784
178.787872 3.75
178.927917 15.71377
180.065628 66.237427
180.334534 7.909483
180.745667 9.680555
181.078217 874.021179
181.129349 2.680556
181.176544 4.0
181.214447 11.26667
181.356857 8.291667
181.382629 10.73016
181.495102 6.05
181.638275 2.0
181.65451 7.921875
181.757965 4.746795
181.972565 3.852273
182.059601 15.30797
182.09993 11.04167
183.092987 86.396049
185.587692 27.66865
189.108261 20.312941
190.109024 66.361687
190.269165 5.422101
191.117432 1323.204956
191.1716 6.691667
191.182022 3.0
191.279175 15.57879
191.390701 22.26087
191.418167 11.28409
191.434631 3.25
191.505432 4.297619
191.554993 2.458333
191.571838 14.00073
191.646851 11.17361
191.744751 17.37359
191.788589 28.061199
191.856033 14.66975
192.046921 900.199585
192.227264 3.0
192.607132 7.927083
192.800735 11.61574
193.352737 6.125
194.063049 248.405197
194.121902 1.777778
194.414215 3.185606
194.646545 12.66667
195.091843 66.943291
195.887344 16.447531
206.082718 5.640152
206.323059 10.45833
207.054718 10.32143
207.093002 58.149899
209.069855 102.662903
223.090652 405.997803
224.065765 20.210529
225.095947 39.375
300.557465 3.560185
923.829102 30.37681
934.746582 4.483333
977.451599 2.0
1167.739624 7.429762
1267.294312 2.816667
1606.052368 7.296568
