>compound MLS001139453-01!(2R)-1-[2-(4-ethyl-7-methyl-2-oxochromen-5-yl)oxyacetyl]pyrrolidine-2-carboxylic acid
>formula C19H21NO6
>ionization [M+H]+
>parentmass 360.1441638440905
#inchi InChI=1S/C19H21NO6/c1-3-12-9-17(22)26-15-8-11(2)7-14(18(12)15)25-10-16(21)20-6-4-5-13(20)19(23)24/h7-9,13H,3-6,10H2,1-2H3,(H,23,24)/t13-/m1/s1
#inchikey NAVWWJGPEUWRJI
#Ion_Source LC-ESI
#Instrument qTof
#Compound_Source NIH Natural Product Library
#PI Dorrestein
#Data_Collector VVP/LMS
#Scan -1
#Precursor_MZ 360.145
#ExactMass 359.137
#Charge 1
#CAS_Number N/A
#Pubmed_ID N/A
#Smiles CCc1cc(=O)oc2cc(C)cc(OCC(=O)N3CCC[C@@H]3C(=O)O)c12
#INCHI_AUX N/A
#Library_Class 3
#SpectrumID CCMSLIB00000079791
#IonMode Positive
#UpdateWorkflowName UPDATE-SINGLE-ANNOTATED-BRONZE
#LibraryQualityString Bronze
#TaskID b1d8e8f6646f4e71acdff9ca3d919d08
##Scan# 1864
#SpectrumFile p1-B11_GB11_01_17895.mzXML
#LibraryName NIH_Natural_Products_Library.mgf
#MQScore -1
#Organism NIH_Natural_Products_Library
#TIC_Query 0
#RT_Query -1
#MZErrorPPM -1
#SharedPeaks 0
#MassDiff 0
#LibMZ -1
#SpecMZ 360.145
#SpecCharge 0
#internalFilename spec-00000.mgf

>collision 10
95.047195 164.0
95.363739 168.0
95.460938 180.0
96.40052 172.0
97.42524 140.0
97.816559 176.0
98.061348 704.0
98.246147 188.0
98.342834 204.0
98.975433 168.0
99.272659 136.0
100.075493 1044.0
100.174988 56.0
100.619698 188.0
101.205505 96.0
101.526108 148.0
101.823128 68.0
102.044159 164.0
102.182938 184.0
102.21714 144.0
102.888298 136.0
103.057999 176.0
103.126656 172.0
103.583939 108.0
104.19252 252.0
104.385605 148.0
104.403908 148.0
104.83548 188.0
104.917007 124.0
105.069046 372.0
105.278152 76.0
105.830246 88.0
106.069931 140.0
106.151939 44.0
106.414574 100.0
106.831764 96.0
108.055122 184.0
108.863487 152.0
109.524849 132.0
110.117188 152.0
110.462059 216.0
111.002403 92.0
111.067413 140.0
111.483109 120.0
111.52935 88.0
111.588211 200.0
111.647087 148.0
111.661804 80.0
111.741737 184.0
112.07682 844.0
112.472969 48.0
112.635559 172.0
113.077454 268.0
113.429047 144.0
114.051697 204.0
114.084984 272.0
114.155144 48.0
114.768387 256.0
114.807884 248.0
115.052956 356.0
116.058746 180.0
116.077225 216.0
116.190659 200.0
117.064819 448.0
119.050621 56.0
121.013069 164.0
121.030586 268.0
121.065514 352.0
121.102852 140.0
121.872841 228.0
122.064072 200.0
122.103653 124.0
123.040123 80.0
123.068825 152.0
124.045357 176.0
124.248466 184.0
125.723671 180.0
125.96257 148.0
126.660461 168.0
126.978729 216.0
127.034798 104.0
127.049911 156.0
127.265961 60.0
127.513054 176.0
127.652435 204.0
127.843643 200.0
128.030487 152.0
128.068695 1716.0
128.217468 176.0
128.429398 28.0
129.071609 436.0
129.462234 108.0
129.53244 100.0
129.548309 180.0
129.84523 152.0
129.981339 108.0
130.07756 240.0
130.419647 152.0
130.888275 100.0
131.031769 176.0
131.054855 120.0
131.086548 924.0
131.492386 96.0
131.83493 204.0
132.054413 136.0
132.089554 180.0
132.874466 132.0
133.028214 120.0
133.064957 116.0
133.08757 160.0
133.099075 144.0
134.035568 184.0
134.072433 152.0
134.104691 196.0
135.051331 180.0
135.086899 224.0
135.824951 216.0
136.55426 48.0
137.060852 1100.0
137.453476 180.0
138.070175 224.0
138.500824 116.0
139.061905 412.0
140.105209 136.0
141.065659 256.0
141.418091 144.0
142.079376 176.0
143.086563 524.0
144.054886 292.0
144.10524 148.0
145.063171 508.0
145.112839 216.0
145.139221 120.0
145.434296 152.0
146.073853 684.0
146.846603 216.0
147.041611 676.0
147.058594 124.0
147.083359 188.0
147.950867 108.0
148.049789 276.0
148.466965 192.0
148.503342 200.0
148.561554 148.0
148.760544 216.0
149.061234 476.0
149.095474 220.0
150.059631 160.0
150.107986 96.0
150.733292 76.0
150.76506 116.0
151.070694 172.0
152.497757 168.0
153.073425 136.0
153.201492 100.0
154.749969 68.0
155.081909 136.0
156.066116 480.0
156.104736 172.0
156.122147 76.0
156.527756 208.0
157.071243 1020.0
157.325592 144.0
158.075104 504.0
158.704102 92.0
159.052795 152.0
159.079941 856.0
159.434555 176.0
159.550186 164.0
160.050858 228.0
160.086105 348.0
160.726364 132.0
161.058853 624.0
161.094894 804.0
161.620819 104.0
162.066452 160.0
162.091782 176.0
162.84523 160.0
163.040848 208.0
163.072647 368.0
164.074265 172.0
165.054672 176.0
165.971344 172.0
167.402588 160.0
167.794235 196.0
168.964142 156.0
169.678925 192.0
170.228989 140.0
171.04274 192.0
171.080704 144.0
172.04895 372.0
172.46167 212.0
172.838242 60.0
173.098236 140.0
173.700165 212.0
173.986191 168.0
174.06813 1240.0
175.075668 716.0
176.049591 408.0
176.082565 316.0
176.171967 96.0
177.054108 2624.0
177.093094 164.0
177.134842 36.0
177.161331 40.0
177.246109 240.0
177.588089 148.0
177.654404 76.0
178.061646 360.0
178.090256 192.0
178.225204 60.0
179.057831 88.0
181.050095 164.0
182.558258 176.0
183.538422 244.0
184.115891 120.0
185.053101 140.0
186.225647 160.0
186.638702 160.0
186.660461 168.0
186.698532 192.0
187.074646 1344.0
187.839722 40.0
188.076813 312.0
188.115326 216.0
188.434845 216.0
189.056549 216.0
189.092651 2224.0
189.20607 240.0
189.227966 208.0
189.715622 64.0
190.058258 472.0
190.093231 188.0
190.437271 80.0
191.030991 184.0
191.066757 296.0
191.110352 240.0
191.275894 136.0
194.854324 76.0
196.126038 64.0
199.072357 192.0
199.560913 40.0
200.092651 168.0
201.058075 184.0
201.615372 208.0
202.060074 1992.0
202.086456 200.0
202.18866 156.0
202.274811 68.0
202.48999 128.0
202.665619 108.0
202.798813 56.0
203.07106 1912.0
203.337677 40.0
203.488129 52.0
203.63295 92.0
203.919907 44.0
204.078995 2012.0
204.366348 104.0
204.56842 64.0
204.767731 52.0
204.978531 140.0
205.009872 224.0
205.049774 144.0
205.0858 2860.0
205.232574 136.0
205.303497 60.0
205.591629 40.0
205.623016 28.0
205.785736 56.0
205.919937 48.0
206.084671 436.0
207.104019 104.0
207.218613 120.0
207.255859 76.0
207.290237 96.0
208.268524 92.0
209.321106 108.0
210.526459 48.0
215.073013 164.0
215.446777 28.0
216.046066 192.0
216.444107 116.0
216.851303 156.0
216.968796 192.0
217.009598 124.0
217.085449 4280.0
217.209015 60.0
217.335159 40.0
217.443726 56.0
217.875366 80.0
218.025223 92.0
218.090057 1532.0
218.678116 84.0
218.972519 88.0
219.052048 76.0
219.116974 108.0
219.166946 72.0
219.270081 28.0
219.367355 72.0
219.43811 52.0
219.646088 76.0
219.936646 68.0
220.104919 192.0
220.28212 44.0
220.695862 100.0
222.043213 80.0
222.449707 76.0
223.028915 300.0
227.062561 128.0
229.019135 124.0
229.040222 112.0
229.070038 160.0
229.118546 148.0
229.359619 156.0
235.0979 120.0
238.058105 108.0
243.195343 52.0
245.082184 1936.0
245.185806 108.0
246.081406 168.0
247.087387 172.0
253.086288 152.0
255.043625 72.0
255.102692 156.0
255.126282 76.0
255.794296 84.0
259.144318 184.0
261.102386 80.0
262.122864 152.0
263.089691 276.0
270.135773 164.0
274.128143 40.0
275.011963 188.0
280.828278 124.0
284.133179 200.0
286.138428 276.0
287.174042 72.0
291.932312 32.0
295.359894 180.0
297.034851 116.0
309.074249 112.0
314.136139 120.0
315.047607 80.0
315.146545 180.0
317.036072 56.0
324.213379 140.0
327.05426 96.0
328.773376 56.0
333.365234 80.0
345.024811 80.0
348.504913 32.0
355.322418 212.0
360.141907 244.0
360.870056 104.0
361.112091 72.0
361.152039 128.0
362.285492 96.0
402.099365 120.0
408.409698 60.0
481.314758 124.0
506.816284 64.0
511.387787 20.0
565.075806 100.0
635.360168 20.0
660.23877 80.0
692.362915 156.0
727.245361 84.0
746.03241 92.0
904.899719 48.0
925.303467 188.0
962.176208 148.0
990.239319 200.0
993.210205 132.0
1013.129761 188.0
1027.503662 144.0
1040.476074 224.0
1116.624878 132.0
1180.009155 100.0
1184.217651 100.0
1190.018921 144.0
1206.560669 132.0
1209.099121 156.0
1210.476685 220.0
1223.320923 184.0
1251.084595 148.0
1253.169189 136.0
1262.359375 140.0
1274.828491 136.0
1312.005127 168.0
1317.47522 168.0
1318.089355 52.0
1320.004883 148.0
1320.684692 160.0
1331.331177 20.0
1332.050171 112.0
1343.223633 96.0
1346.442383 196.0
1352.627808 156.0
1357.455811 140.0
1357.609863 236.0
1362.388062 168.0
1382.161621 156.0
1383.812134 136.0
1385.582275 176.0
1399.686523 140.0
1403.270386 208.0
1404.881226 180.0
1405.84375 120.0
1406.134766 172.0
1420.388062 176.0
1422.549194 204.0
1425.081909 80.0
1426.477905 212.0
1427.079224 160.0
1429.630249 148.0
1432.919678 200.0
1433.131348 164.0
1434.366455 56.0
1435.753784 248.0
1437.368042 172.0
1442.987549 156.0
1444.742065 212.0
1455.443481 228.0
1460.147217 116.0
1462.026367 108.0
1465.094849 232.0
1472.829712 144.0
1481.35083 136.0
1485.260132 120.0
1486.994141 236.0
1488.068726 184.0
1493.178711 168.0
1501.6427 136.0
