>compound cyclo(L-Trp-L-Pro)
>formula C16H17N3O2 
>ionization [M+H]+
>parentmass 284.139
#inchi InChI=1S/C16H17N3O2/c20-15-14-6-3-7-19(14)16(21)13(18-15)8-10-9-17-12-5-2-1-4-11(10)12/h1-2,4-5,9,13-14,17H,3,6-8H2,(H,18,20)/t13-,14-/m0/s1
#inchikey RYFZBPVMVYTEKZ
#Ion_Source DI-ESI
#Instrument qTof
#Compound_Source Isolated
#PI Keyzers
#Data_Collector R Keyzers
#Scan -1
#Precursor_MZ 284.139
#ExactMass 283.132
#Charge 1
#CAS_Number 38136-70-8
#Pubmed_ID N/A
#Smiles N/A
#INCHI_AUX N/A
#Library_Class 3
#SpectrumID CCMSLIB00000007121
#IonMode Positive
#UpdateWorkflowName UPDATE-SINGLE-ANNOTATED-BRONZE
#LibraryQualityString Bronze
#TaskID 76b66bf1ccd04cec9993212b36387ea3
##Scan# 3
#SpectrumFile CDB02_28H_MSMS_001.mgf
#LibraryName gnps_library.mgf
#MQScore -1
#Organism test_rob_keyzers
#TIC_Query 0
#RT_Query -1
#MZErrorPPM -1
#SharedPeaks 0
#MassDiff 0
#LibMZ -1
#SpecMZ 284.139
#SpecCharge 0
#internalFilename spec-00000.mgf

>collision 10
103.055046 81.316811
104.010269 31.12348
107.970024 67.060188
108.037804 39.635872
110.933365 59.405411
112.110283 31.001789
113.069176 61.770828
115.083656 580.746582
116.08065 34.840721
118.065788 316.671112
121.877266 81.348892
125.07 645.120117
129.948608 39.984909
130.00499 30.66898
130.062897 29409.390625
130.450546 39.311329
130.528641 34.45153
130.630173 45.7299
130.7621 40.058819
130.864014 37.27404
131.065903 2697.118896
131.147949 40.114971
131.167908 38.677441
131.744629 35.408428
132.079224 2370.375977
132.186111 33.592041
133.081253 236.306107
134.091705 33.13158
134.560699 100.115601
135.081757 40.854172
135.108826 75.212502
137.105118 35.02961
141.111099 57.16827
141.139709 39.51815
142.062683 80.728569
146.056015 52.50391
149.01181 45.62019
150.059433 56.223209
151.040161 66.347816
153.062729 777.595276
154.07074 68.384308
155.078888 429.123505
156.089493 51.0625
158.04895 49.908428
159.089172 695.049194
167.077179 95.002663
169.028961 36.001888
169.073471 53.90741
170.057892 2672.481934
171.062195 433.292694
172.067505 48.859669
173.132584 66.518822
175.055222 68.008392
175.087402 33.278412
178.10997 33.538109
179.145233 33.446758
184.906784 31.5625
185.106888 111.115402
197.063721 45.316891
199.079926 51.73053
200.926559 83.734756
201.018814 36.183819
201.941971 45.595242
210.139771 51.083328
218.003983 32.222389
222.123932 66.078949
222.89772 38.525002
227.082596 46.916672
227.998627 91.525421
235.035233 48.034721
238.124878 66.680557
239.062424 57.832081
239.11937 210.711105
242.108627 30.03125
243.053757 227.763199
243.126984 221.281006
243.549149 89.808823
243.610626 37.765629
244.050552 238.922195
244.550064 75.55114
245.098846 30.115391
250.171432 49.625
251.080963 31.50625
251.182312 58.541672
256.145905 50.588821
257.157806 37.723209
266.996735 33.153412
267.110077 131.947098
283.159302 210.0
284.136505 6772.836914
284.327728 1723.032959
284.56192 34.94643
285.140778 1425.207031
285.33371 501.877594
285.428955 69.668983
286.138275 88.083344
286.288147 56.24617
287.074036 43.854172
306.097748 31.51442
369.159912 64.283783
425.454651 31.132811
435.26297 35.033329
1372.212402 34.135872
