>compound Nateglinide
>formula C19H27NO3 
>ionization [M+H]+
>parentmass 318.207306
#inchi InChI=1S/C19H27NO3/c1-13(2)15-8-10-16(11-9-15)18(21)20-17(19(22)23)12-14-6-4-3-5-7-14/h3-7,13,15-17H,8-12H2,1-2H3,(H,20,21)(H,22,23)/t15?,16?,17-/m1/s1
#inchikey OELFLUMRDSZNSF
#Ion_Source LC-ESI
#Instrument qTof
#Compound_Source Isolated
#PI Sirenas
#Data_Collector Ed Esquenazi 
#Scan -1
#Precursor_MZ 318.208
#ExactMass 0.0
#Charge 1
#CAS_Number N/A
#Pubmed_ID N/A
#Smiles N/A
#INCHI_AUX N/A
#Library_Class 3
#SpectrumID CCMSLIB00000005752
#IonMode Positive
#UpdateWorkflowName UPDATE-SINGLE-ANNOTATED-BRONZE
#LibraryQualityString Bronze
#TaskID d19310cd93df49b68e9fcbec27720eb5
##Scan# 1
#SpectrumFile Nateglinide.mgf
#LibraryName fda_library.mgf
#MQScore -1
#Organism fda_library
#TIC_Query 0
#RT_Query -1
#MZErrorPPM -1
#SharedPeaks 0
#MassDiff 0
#LibMZ -1
#SpecMZ 318.208
#SpecCharge 0
#internalFilename spec-00000.mgf

>collision 10
101.35257 3.001471
103.055038 230.004303
103.500557 5.694118
110.937653 6.497581
115.555328 3.045
117.393845 7.722458
118.032188 6.981452
118.395546 7.466666
119.347137 6.097973
119.362076 4.4
119.377281 3.44537
119.384888 9.240334
119.407532 5.8375
119.423798 17.85038
119.455894 9.36
119.463463 13.31229
119.487541 4.63141
119.495911 8.333889
119.521767 5.000581
119.544647 11.98955
119.569313 6.625
119.59024 2.88
119.605453 4.200807
119.623077 2.76
119.643509 10.29718
119.665627 7.752084
119.696609 36.2607
119.718071 7.641
119.72728 5.209783
119.734901 2.402273
119.75769 2.8
119.772911 3.258333
119.810265 6.891129
119.846405 19.157471
119.876083 3.817308
119.895874 8.409524
119.94812 14.61761
120.005264 8.010527
120.016708 7.246296
120.0811 21400.859375
120.245674 28.982969
120.256691 17.84856
120.271767 15.7451
120.293823 24.05405
120.307777 42.398548
120.346367 50.209911
120.380348 4.207
120.403404 9.15
120.413734 6.417279
120.429688 29.767229
120.448883 19.50359
120.471329 18.74612
120.487267 51.059059
120.513657 21.55965
120.520317 4.225
120.547806 16.865549
120.572632 3.896053
120.585251 8.202381
120.601044 31.764891
120.61145 3.0125
120.619736 9.402941
120.631104 2.645
120.642128 4.50625
120.663177 34.239712
120.6978 16.734449
120.726639 3.6
120.733482 8.4
120.765511 15.62038
120.830132 13.26045
121.056473 14.965
121.134666 4.601666
121.182648 8.863157
121.197189 10.09534
121.730202 3.072727
122.008995 7.4625
122.183548 4.433108
122.424751 3.245
122.61557 4.5375
123.10218 6.678226
123.118141 15.8
124.38076 21.326059
124.416878 10.82722
124.42598 19.501961
124.462898 7.406081
124.479347 43.910259
124.504257 61.739571
124.527702 67.354111
124.54644 49.981091
124.571457 31.458851
124.588211 6.45
124.59478 5.313636
124.610428 4.218182
124.619904 12.74337
124.631119 15.13333
124.637611 10.00045
124.646126 8.312037
124.65361 9.611793
124.679123 23.31262
124.700409 7.605
124.732407 21.91
124.777428 34.413651
124.800468 7.577778
124.812378 4.60147
124.820221 11.06944
124.858673 2.425
124.900261 6.009
124.948517 7.074122
124.995186 2.629762
125.057426 7.608696
125.096344 3.504167
125.132912 33247.320312
125.299492 3.256818
125.407784 43.528728
125.445076 9.020689
125.461487 31.26642
125.472282 61.057411
125.489288 7.42591
125.559845 44.339321
125.577309 32.838261
125.604485 35.675041
125.633293 47.21286
125.644951 32.936199
125.689278 22.472731
125.698189 26.029289
125.710579 7.863196
125.723877 14.44476
125.740974 16.25128
125.749809 12.42315
125.782318 11.81096
125.798813 5.632143
125.820663 47.205139
125.856895 9.8
125.881294 11.62402
125.910873 3.423148
125.927437 5.757143
126.08773 2.808333
126.102249 18.20023
126.238831 13.23571
126.265106 25.50816
126.3498 4.968182
126.375328 4.713636
126.394417 6.664286
126.430679 14.12358
126.508804 3.622222
126.716438 6.160714
126.786819 4.657143
126.833801 2.048077
127.014114 2.60625
127.049026 4.608333
127.066841 15.02222
127.159225 2.809
127.379005 2.609783
128.133972 2.2
128.541885 2.0
130.206436 15.28305
130.642822 4.045371
131.048813 155.695908
131.224014 3.018182
131.329926 17.20672
135.117798 13.09697
148.199127 7.693889
148.292099 4.278125
149.058807 155.914307
149.367477 2.857143
152.24527 6.864362
152.273331 8.679348
152.305374 2.401191
152.365479 6.486224
152.389099 2.925
152.417023 3.001191
152.533005 6.600806
152.574142 8.641001
152.584457 5.857143
152.636063 7.916667
152.962967 8.212255
153.127167 3239.121094
153.174774 28.70647
153.199692 2.607143
153.23085 9.306589
153.270248 5.689286
153.31192 27.92857
153.340714 32.97324
153.376114 2.719118
153.397324 6.215
153.412918 13.55
153.434433 24.51721
153.455917 11.47713
153.474487 3.777941
153.483902 6.009783
153.496964 5.4
153.509888 2.025
153.529297 17.635361
153.613358 5.503049
153.647888 5.360714
153.71962 7.267858
153.88089 8.547449
154.088181 4.556481
154.126968 5.614535
154.609665 1.936111
154.740814 12.40812
156.642059 2.405
161.170166 3.92
162.972382 37.300129
163.687057 2.977941
163.71608 2.978571
163.917572 7.400758
164.095306 6.512037
164.336441 5.469828
164.403412 4.203571
164.482758 8.40064
165.050842 10.04615
165.071365 17.508671
165.097305 10.075
165.130356 55.84779
165.156433 29.87608
165.174255 29.227631
165.20047 43.07333
165.227661 18.26162
165.254745 43.401699
165.283829 14.40278
165.302795 24.29389
165.338806 24.7561
165.352478 6.775
165.368347 7.811111
165.390701 7.802273
165.411026 15.25294
165.426956 6.728
165.453949 28.30315
165.482697 11.02299
165.507523 17.248501
165.534241 9.416666
165.582993 34.29541
165.606171 9.877631
165.686615 4.05
165.709076 29.22246
165.76857 8.41
165.807678 23.061291
165.858566 10.275
165.873627 37.777531
165.968445 6.223148
165.986282 6.009091
166.021683 32.497822
166.053604 3.464474
166.086639 44129.570312
166.464111 61.447842
166.487701 39.960232
166.506744 24.529369
166.526688 51.58596
166.544632 15.04959
166.56781 49.472359
166.593033 12.89583
166.605255 59.516842
166.623199 30.20393
166.661942 40.32885
166.672302 36.31723
166.686417 56.874069
166.711029 43.33514
166.731033 30.10046
166.771011 60.11536
166.794968 14.85625
166.832611 36.742489
166.878418 7.050704
166.902359 15.45294
166.92836 20.769779
166.969986 5.664474
167.001694 13.92346
167.016449 11.45463
167.041611 8.57622
167.140244 3.696154
167.232376 10.25
167.24884 10.445
167.28038 12.1629
167.293182 13.20135
167.302261 4.272727
167.321304 3.641667
167.356476 6.238235
167.365219 15.80119
167.39212 1.8
167.434372 3.35
167.541306 7.442415
167.554199 3.432143
167.810974 3.461538
167.84787 7.067308
167.886505 8.275
167.946579 10.29773
167.96875 4.225
167.998734 9.409042
168.171707 3.040909
168.216797 4.50431
168.320618 3.809783
168.505722 5.247093
168.695435 5.602381
168.894318 7.630224
168.95845 4.711538
169.035492 11.38026
169.061966 2.314286
169.351257 4.000806
169.632065 4.432143
169.681915 8.200455
169.690979 4.851923
169.736343 5.257143
169.76886 4.711538
169.960098 2.857143
170.244308 3.6
174.133652 2.208333
181.95462 12.025
182.180328 5.59527
190.279938 12.73556
216.450317 5.188235
239.906372 4.821429
240.160828 10.22241
240.985641 14.18409
241.078217 2.578572
241.509384 3.413235
241.59938 7.422369
252.05159 34.20525
270.562927 2.408333
270.623993 2.064286
270.654175 11.38064
270.669739 4.829878
270.722961 7.568244
270.832275 3.384091
270.878693 3.875
271.021362 10.55208
271.425751 8.800641
271.491089 9.441362
271.77774 8.552273
271.957581 9.638235
271.987732 14.63467
272.145294 22.464081
272.160736 25.97963
272.200806 3044.716064
272.252686 5.628572
272.276215 20.087999
272.315186 5.013333
272.373535 45.001469
272.393158 8.844512
272.41217 16.21364
272.429749 5.004546
272.453369 8.008333
272.528564 10.80513
272.557037 11.40809
272.60434 7.616666
272.677521 14.85667
272.739899 7.008334
272.819122 28.65951
272.925049 15.02841
272.96701 12.29706
273.124939 8.209524
273.303192 8.824243
273.343292 14.65577
273.602356 7.370283
273.651947 17.483219
273.725433 10.43333
274.040497 14.14094
274.466217 15.1875
293.070282 4.005
298.388763 4.611111
298.460938 7.659314
298.619324 2.857143
298.638031 5.155556
298.66098 12.53373
298.678223 10.14
298.773438 4.816667
299.453369 5.417857
299.71875 10.40634
299.899017 9.004787
300.109924 2.609783
300.197113 1956.125
300.26535 15.41492
300.306702 8.780172
300.323883 7.221551
300.351044 7.846296
300.452484 6.822298
300.471619 6.038095
300.499664 4.848529
300.547516 4.281667
300.569366 2.578572
300.603027 6.289286
300.664642 2.82
300.730988 13.28782
300.827606 9.04
300.869781 5.025
300.906158 13.42608
301.081635 12.47517
301.364838 9.41875
302.404449 2.436765
312.413544 10.20833
314.029724 6.375
315.940643 3.405
316.021088 6.16
316.052002 5.505882
316.141541 21.035839
316.189056 16.408701
316.220551 31.08028
316.249481 20.698999
316.295227 25.495741
316.32663 46.97982
316.354584 30.403811
316.407776 15.77052
316.431854 6.632692
316.449646 8.981818
316.489349 49.75555
316.560974 26.773029
316.577972 8.828488
316.608826 37.802891
316.625275 4.696053
316.687164 21.068171
316.893646 8.052084
316.929718 6.449138
317.104401 12.85
317.249481 20.529209
317.374054 17.49262
317.441101 8.025
317.466949 16.325001
317.662048 3.004167
317.709442 7.728125
317.916321 45.859749
318.095825 15.24737
318.115021 4.440909
318.155426 69.794899
318.207306 19962.179688
318.430481 40.76923
318.532806 58.502419
318.563965 17.357889
318.588531 28.51573
318.680969 35.764912
318.70752 19.282
318.726105 18.27422
318.76474 29.709261
318.78125 38.392502
318.803131 22.463249
318.841675 43.100288
318.885315 23.24
318.977783 6.716556
319.008972 11.20038
319.058655 39.20216
319.096069 63.187538
319.163605 8.855333
319.317657 23.864309
319.372284 30.99922
319.685913 40.114559
319.846069 30.393419
319.904175 5.227174
319.998932 28.41715
320.122314 8.592628
320.481903 6.272059
320.54541 2.5
320.607849 3.4
320.657684 6.805
320.931915 4.34569
321.455597 3.816667
321.792511 3.096428
322.29715 13.0481
322.979156 9.21
323.179413 4.211111
323.636108 2.001471
324.375214 4.34569
326.062683 9.606451
327.716919 2.8
410.57251 20.81818
734.40332 3.20625
807.544495 3.621552
953.586487 7.601923
997.261963 15.41184
1042.804688 4.5375
1305.52832 6.515
1323.171143 2.20625
1471.592163 3.800926
1538.925659 1.6
1656.661865 5.160714
