>compound Probenecid (Benemid)
>formula C13H19NO4S
>ionization [M+H]+
>parentmass 286.111328
#inchi InChI=1S/C13H19NO4S/c1-3-9-14(10-4-2)19(17,18)12-7-5-11(6-8-12)13(15)16/h5-8H,3-4,9-10H2,1-2H3,(H,15,16)
#inchikey DBABZHXKTCFAPX
#Ion_Source LC-ESI
#Instrument qTof
#Compound_Source Commercial
#PI Dorrestein
#Data_Collector Garg_Neha
#Scan -1
#Precursor_MZ 286.111
#ExactMass 285.103
#Charge 1
#CAS_Number 57-66-9
#Pubmed_ID N/A
#Smiles C1=C(C=CC(=C1)C(=O)O)S(N(CCC)CCC)(=O)=O
#INCHI_AUX N/A
#Library_Class 1
#SpectrumID CCMSLIB00000078627
#IonMode Positive
#UpdateWorkflowName UPDATE-SINGLE-ANNOTATED-GOLD
#LibraryQualityString Gold
#TaskID 77f51c88eb8b467eb4a01dd2d0cb90d2
##Scan# 1537
#SpectrumFile Plate10_1_20_GC1_01_15743.mzXML
#LibraryName FDALibrary_2_04302014.mgf
#MQScore -1
#Organism FDALibrary_2_04302014
#TIC_Query 0
#RT_Query -1
#MZErrorPPM -1
#SharedPeaks 0
#MassDiff 0
#LibMZ -1
#SpecMZ 286.111
#SpecCharge 0
#internalFilename spec-00000.mgf

>collision 10
49.186695 204.0
50.318207 172.0
50.827751 200.0
55.198933 172.0
61.021717 184.0
75.142365 196.0
76.861862 140.0
82.337387 152.0
84.363396 160.0
89.810371 236.0
90.592949 204.0
91.761742 200.0
92.172112 160.0
93.035904 172.0
96.5783 228.0
98.9021 172.0
100.111244 1216.0
101.823097 180.0
105.0326 300.0
107.019119 240.0
118.556328 208.0
121.026237 872.0
123.095726 216.0
125.46093 224.0
127.48658 168.0
139.038681 548.0
139.104172 176.0
139.882248 176.0
142.780716 152.0
145.901154 144.0
147.081894 188.0
147.390656 172.0
149.034866 1360.0
150.037659 188.0
151.174423 204.0
155.08049 176.0
160.543381 156.0
162.092987 144.0
166.624542 244.0
184.989716 4400.0
185.993866 668.0
186.989349 196.0
187.989532 132.0
197.711548 192.0
198.843781 140.0
200.700424 176.0
201.903381 168.0
202.01651 12340.0
203.020187 1120.0
203.510071 172.0
204.014511 548.0
205.867798 152.0
216.071808 144.0
217.440231 188.0
220.023331 168.0
221.390732 152.0
225.104965 164.0
229.920212 152.0
230.575577 168.0
236.567749 152.0
242.39505 160.0
242.422928 220.0
242.754623 156.0
243.949982 156.0
243.999542 136.0
244.064514 22160.0
245.066528 2492.0
246.012222 152.0
246.061264 1576.0
246.683029 156.0
246.868896 132.0
247.072159 168.0
249.030777 144.0
253.960922 156.0
263.494263 160.0
263.895508 108.0
284.152069 188.0
285.009979 204.0
285.134308 164.0
285.276794 152.0
285.359528 144.0
286.068573 292.0
286.111328 14288.0
286.2276 204.0
287.11377 2172.0
287.169006 160.0
288.107117 732.0
289.117218 340.0
378.036102 180.0
402.884521 144.0
430.342712 148.0
1414.831787 180.0
1793.7052 184.0
1847.314331 208.0
1916.601074 188.0
