>compound Vincristine
>formula C46H56N4O10 
>ionization [M+H]+
>parentmass 825.4069204440905
#inchi InChI=1S/C46H56N4O10/c1-7-42(55)22-28-23-45(40(53)58-5,36-30(14-18-48(24-28)25-42)29-12-9-10-13-33(29)47-36)32-20-31-34(21-35(32)57-4)50(26-51)38-44(31)16-19-49-17-11-15-43(8-2,37(44)49)39(60-27(3)52)46(38,56)41(54)59-6/h9-13,15,20-21,26,28,37-39,47,55-56H,7-8,14,16-19,22-25H2,1-6H3/t28-,37+,38-,39-,42+,43-,44-,45+,46+/m1/s1
#inchikey OGWKCGZFUXNPDA
#Ion_Source LC-ESI
#Instrument qTof
#Compound_Source Isolated
#PI Sirenas
#Data_Collector Ed Esquenazi 
#Scan -1
#Precursor_MZ 825.409
#ExactMass 0.0
#Charge 1
#CAS_Number N/A
#Pubmed_ID N/A
#Smiles N/A
#INCHI_AUX N/A
#Library_Class 3
#SpectrumID CCMSLIB00000005529
#IonMode Positive
#UpdateWorkflowName UPDATE-SINGLE-ANNOTATED-BRONZE
#LibraryQualityString Bronze
#TaskID d19310cd93df49b68e9fcbec27720eb5
##Scan# 3
#SpectrumFile Vincristine.mgf
#LibraryName fda_library.mgf
#MQScore -1
#Organism fda_library
#TIC_Query 0
#RT_Query -1
#MZErrorPPM -1
#SharedPeaks 0
#MassDiff 0
#LibMZ -1
#SpecMZ 825.409
#SpecCharge 0
#internalFilename spec-00000.mgf

>collision 10
100.075089 84.872513
100.125587 1.666667
101.081711 38.049858
102.089935 18.90645
102.793457 7.673611
105.06694 30.53005
105.132767 3.208333
106.064392 96.417793
107.071655 79.742058
107.084023 21.77442
108.079514 228.228806
108.110641 4.291667
108.134171 4.120098
108.478104 16.352079
110.097656 117.038597
110.143951 2.041667
112.072731 48.678211
112.120667 3.028846
113.08313 63.82967
113.121948 8.519231
113.128571 3.0
113.662109 44.33831
114.445679 21.551331
115.037163 43.875
116.625984 9.442983
117.338669 72.820511
117.465294 8.416667
118.001717 13.96154
118.064865 42.935791
118.24382 14.82051
120.657669 7.125
121.064163 83.863853
121.088684 170.289902
121.239212 13.76872
121.272972 7.136111
121.61879 7.605556
122.060684 79.751343
122.096756 1652.671021
122.146454 13.44246
122.192535 5.347222
122.259041 13.2619
122.273499 9.840278
122.394951 6.335
122.410416 3.722222
122.919495 26.857071
123.382477 7.160715
123.564415 17.188271
123.703163 11.7971
124.04689 10.74359
124.111702 530.29657
124.160164 4.033333
124.237701 8.802928
124.358047 24.346951
124.48806 2.347222
124.514824 8.798913
124.650528 9.453704
124.937584 9.672222
126.087875 60.816311
126.10614 4.671297
126.128212 218.778
126.162117 3.35
127.098068 30.6752
127.610855 7.680555
127.678978 37.14819
128.106644 47.388779
128.280655 3.047619
130.062393 150.527496
130.189713 8.018518
130.443954 4.44079
132.378113 16.111111
133.41301 9.763095
134.062775 34.013889
134.378891 9.561992
134.883469 6.352941
134.91481 13.49405
135.033005 14.68056
135.104675 38.31469
135.575256 22.34091
136.112122 286.968597
136.159134 16.17778
136.246109 7.382936
138.126877 650.772095
138.225082 4.0
138.302811 7.347222
138.365158 10.74405
138.470535 10.10887
138.507812 19.40064
138.57193 2.482143
139.079193 5.625
139.919464 9.356482
140.106125 356.048615
140.228256 6.001812
140.371323 2.854167
141.11293 114.307899
142.124619 122.116798
143.073807 93.187172
143.421356 4.75
144.079361 660.878479
144.305618 7.888889
144.420166 7.897436
144.436691 12.08232
144.666733 5.734848
146.059494 20.694441
147.099976 24.28002
148.11705 42.558151
148.486801 4.668478
149.106735 22.061781
149.263596 5.668478
150.093353 104.732903
150.126755 61.469769
151.282578 7.0
152.107941 25.24519
153.116547 53.195759
153.699371 5.480072
154.061844 20.0056
154.084839 31.8734
154.122253 252.069794
155.819992 17.882839
156.081802 59.371399
156.139114 204.077606
157.715286 4.523809
158.095886 80.464531
158.121552 8.010417
158.708298 16.930969
160.074051 28.33382
162.089264 113.964699
164.106018 356.408905
164.331802 6.482143
164.370514 3.640152
165.14946 4.59375
166.120056 236.508301
167.067245 20.236111
167.135345 68.469948
168.081757 28.10256
169.075287 139.703903
169.328369 11.64031
169.512405 12.22917
169.736038 8.79594
170.144669 23.301941
171.091888 55.771389
172.705215 5.414216
174.089127 46.11647
176.106323 76.294167
180.079056 59.156769
180.101089 37.667068
180.144791 8.573413
180.369308 14.01667
181.085114 43.698002
182.097473 17.280001
182.114212 19.34409
183.091339 28.524469
183.3134 13.67348
184.077087 87.314667
184.351105 9.33772
185.107025 229.710098
185.5056 19.36915
186.090652 35.521309
186.141113 18.561399
187.95076 10.90675
188.106323 20.76445
190.064651 29.891199
192.098083 38.251301
193.099335 26.75901
193.314041 10.37045
193.530045 20.74085
193.647919 5.480072
194.122009 32.583328
196.071762 20.09058
196.095703 4.107143
198.135086 28.36742
198.822296 4.222222
199.087997 17.019609
200.519318 3.047619
206.111115 62.712502
207.102051 19.79598
208.136475 114.2323
210.116302 35.633469
211.091858 37.02895
212.132812 63.507252
212.675369 8.974359
213.740753 7.35307
214.082108 50.098881
214.140778 28.11937
214.208832 3.333333
215.088089 29.75
216.099564 109.458199
217.351654 5.333333
218.082718 8.69697
218.329407 8.46558
220.796921 20.52083
222.096024 31.146429
222.109634 20.92602
222.946915 7.757883
223.115082 15.9793
223.295074 2.666667
223.32634 9.32545
223.357468 14.34783
223.440491 17.111111
223.721558 17.036579
224.018265 10.3375
224.103577 67.86084
224.128387 1641.493042
224.192719 5.416667
224.20575 2.337121
224.25647 13.46944
224.273468 27.517059
224.323227 30.305849
224.43103 28.61964
224.487122 5.357143
224.534042 3.080128
224.748016 11.30159
224.96431 8.791667
225.139374 1132.984009
225.207016 4.741667
225.253998 14.00068
225.293533 15.37004
225.370483 3.226852
225.432999 40.864891
225.505112 11.93895
225.698029 5.375
225.776428 12.74423
225.832336 21.87879
226.084518 80.969963
226.480255 12.84375
227.462616 44.68927
228.09848 34.220631
228.39975 6.25926
229.093903 44.0303
229.640137 12.67262
232.050415 5.720238
236.116867 10.83
236.141617 4.6
236.574493 28.63344
236.635696 12.68519
236.833878 9.694445
237.132294 25.81896
238.143097 78.292412
239.140717 31.70219
240.094635 14.33681
242.119888 43.07692
244.093887 28.83
249.10997 18.701269
250.105209 34.679531
251.085037 10.60093
251.149384 67.809097
251.686172 8.338542
251.741364 6.125
252.122696 21.379311
252.583603 18.887581
253.165298 49.149139
257.102386 46.684448
258.127625 26.724291
258.184967 3.678571
261.144196 13.8293
262.083038 25.75
262.146545 10.28004
262.659363 11.34295
263.116272 16.380951
263.150391 76.856827
263.480896 5.893518
264.160767 97.797417
265.171509 245.248505
265.627747 11.00872
265.877808 9.789142
266.138275 9.009616
266.42804 8.675926
266.478912 7.339285
270.109711 20.320511
270.168152 93.291473
271.185272 74.037117
271.517059 10.00833
272.137756 2.111111
272.60733 8.704166
276.133362 11.68333
277.165924 12.05357
278.718262 5.335145
279.182373 25.78602
281.161774 112.259903
281.624451 31.867769
282.406799 12.01961
282.500763 7.25
283.178101 188.686203
284.098511 15.68167
284.310059 3.760417
285.157349 43.75901
291.145416 57.87307
294.168365 30.55327
295.074677 26.39645
295.123352 61.26667
295.14032 7.564103
295.177979 125.658997
296.127075 44.333672
296.761963 3.342592
297.105591 24.48321
297.192352 14.09375
297.571045 9.323276
297.847687 4.666667
298.785431 8.755208
300.118866 24.496799
302.126434 33.782101
302.150208 11.09399
303.148926 20.72588
304.343048 2.761364
305.092041 27.555559
305.157867 42.291401
305.442474 7.041667
306.138611 60.702591
307.586395 3.047619
309.128235 28.93519
309.145142 60.74794
310.105621 19.96348
310.913391 12.72794
312.154816 2.666667
314.15036 52.652
314.230316 11.89851
319.146057 27.098961
320.152802 13.78677
323.17807 202.116394
326.185669 3.893518
329.180176 25.325199
333.167603 16.33404
334.139709 27.67985
334.180389 10.27222
335.075317 8.031566
335.17334 138.659698
337.188049 103.614403
337.227417 1.777778
337.422882 4.007576
337.742096 18.517241
338.158325 13.14667
338.376556 3.185606
339.142395 7.703947
339.169403 24.67244
340.134918 27.99671
342.144745 3.482143
342.188202 16.70833
344.187164 25.854401
345.151367 13.96711
349.190979 69.218658
350.982697 3.666667
351.004791 5.680555
351.034821 4.388158
351.105133 69.718849
351.134155 86.260841
351.160156 16.204269
351.197784 3.816667
351.217346 6.666667
351.47818 12.70249
352.170105 11.76066
352.725037 4.686404
352.817383 39.02541
353.122711 48.876888
353.184326 650.22937
353.583527 2.520833
353.784363 15.70833
353.9086 6.012931
354.740265 3.333333
355.139496 21.04529
355.198212 170.399506
355.233704 10.06667
356.168335 28.6752
356.644318 63.97546
356.721832 8.122549
357.570038 11.40833
358.755219 12.38021
359.150513 9.352941
359.176636 12.52365
361.149902 8.240079
361.280426 51.93544
362.136688 2.669444
363.167053 45.00359
364.157867 55.198132
364.212799 13.11204
364.632782 15.30797
365.394562 6.696428
365.561676 6.371212
366.161102 37.804691
367.205597 4.008333
369.176208 84.822304
371.1362 57.66766
371.209564 1.666667
376.15921 14.69928
377.187531 126.215202
377.665405 7.125
378.680176 9.014493
380.137939 10.85833
380.354156 8.847222
381.029541 6.208333
381.114838 12.21212
381.149231 16.70833
381.474487 9.960366
382.125 25.41667
383.131256 37.33654
383.193146 53.854698
384.142395 33.890808
385.31839 15.34722
389.181366 18.30183
390.094208 4.041667
390.198547 64.502533
393.176056 80.085274
393.49942 2.761364
395.194336 201.119598
395.295654 6.672222
396.465485 12.04167
397.188873 31.370371
397.212402 28.068399
399.950409 8.20119
400.208862 38.846149
402.219757 67.308006
402.828949 8.491228
403.163086 23.95702
403.981873 19.081671
404.146912 48.891201
405.173737 30.74629
405.21875 26.380951
406.203125 35.806099
407.195587 142.517303
409.171356 17.805559
409.329742 25.002979
410.178772 10.14674
411.124725 17.70833
411.152618 10.16667
411.173828 12.60093
411.223297 25.673759
413.203705 120.0214
413.232574 16.966009
413.39801 24.08333
414.156494 26.18939
415.218872 19.09091
418.059082 1.671296
418.158508 45.47337
419.182983 24.163549
420.167297 9.32545
421.218872 23.5679
423.188721 76.367142
423.220093 34.323029
423.289246 6.341667
423.97049 3.083333
425.601349 6.428572
426.208252 61.17186
427.165253 29.92667
427.522675 7.130208
428.148895 16.480391
428.228149 119.7379
429.157532 49.058231
429.188568 18.04003
432.168854 23.08284
433.172638 45.036839
433.77829 10.25
435.194733 50.595631
435.5802 3.047619
436.211792 29.70833
437.200836 69.15686
439.452881 3.115741
439.511963 26.455641
440.210724 13.48316
441.247772 4.741667
444.182037 85.212189
446.2164 27.73958
448.16629 9.214286
450.200806 13.03947
452.183746 69.209129
452.230988 55.4291
452.315308 16.46944
452.535492 7.708333
452.562317 4.208333
453.203522 125.144997
453.350952 4.844298
453.55838 11.78241
454.092438 18.021429
454.313599 2.816667
454.512115 26.497129
455.215393 271.299194
455.323303 2.0
455.442505 16.213329
455.569061 16.456301
455.709412 3.0
456.006653 9.546718
456.257751 23.057199
458.014954 14.76552
458.142395 12.21212
458.401764 6.805555
458.729553 8.727273
459.192719 16.16379
460.195129 36.748871
460.564362 5.019737
462.171051 3.355392
462.24762 27.627451
463.201233 85.989723
465.226257 32.49667
467.255646 16.3344
468.075623 7.429762
469.016907 7.383333
469.233215 50.58852
470.268433 12.88889
471.18927 10.60093
472.257324 47.296879
472.610016 18.380871
474.277557 27.34683
475.173981 21.5375
475.215118 67.038063
476.248627 3.926282
477.244324 120.378601
478.209656 30.64259
478.500488 11.50521
478.8396 8.004902
479.479279 8.03592
480.261566 86.017776
480.325226 5.016304
481.186798 128.659607
482.172119 4.083333
482.454895 7.605556
483.210297 84.143753
483.655762 11.8293
484.215759 118.121803
484.253967 62.87183
484.299774 25.52137
486.279816 21.280411
487.159088 26.406349
487.208618 39.65321
488.026062 12.01136
489.233368 7.670834
490.212463 71.31778
491.238403 20.927589
493.167847 31.979879
494.249023 37.794449
494.711945 3.034091
495.209045 201.860397
495.29245 9.666667
496.262878 44.45322
496.455231 4.225
497.233826 56.29253
498.051788 28.52713
500.197906 4.107143
500.257019 31.5375
501.203979 66.110977
502.201355 45.76899
502.268646 39.81649
502.345703 17.79167
503.134796 16.370831
503.271698 38.173851
504.230408 72.392143
504.298615 16.720091
504.53302 2.670455
505.661072 8.680555
506.237823 105.575798
506.260925 48.060181
506.873047 20.83333
508.260284 45.546692
508.314697 12.55408
509.232056 12.39682
510.229645 20.398439
510.266998 18.06848
510.387146 4.691667
510.56546 6.336111
511.141907 2.003788
511.189667 8.535
512.263184 34.597832
512.80304 4.166667
513.238708 66.723267
514.135681 6.673611
514.216125 24.91923
514.257019 49.291672
515.840332 5.001812
516.224731 9.259408
516.289551 28.40774
517.205566 3.333333
517.287415 23.334999
517.350586 3.695513
518.296082 54.28162
518.853333 2.669444
519.221863 118.869904
519.266296 56.202
519.661072 18.74085
520.261169 305.300201
520.556702 22.03409
520.981201 5.177632
521.292419 6.958333
523.273987 79.115044
523.340698 3.483333
524.031799 4.387821
524.155884 15.70513
524.254761 121.164497
525.94873 19.67333
526.262634 53.44162
526.418518 13.48316
529.215881 9.157895
529.244812 25.534519
530.23468 53.028381
530.296814 20.342859
532.272156 12.04167
533.980835 7.011905
534.189392 13.00076
534.288513 23.603029
534.749329 24.15428
535.203003 9.180555
535.50885 3.013889
535.549133 5.121212
536.222351 7.208333
536.250549 183.693695
536.309998 66.742439
536.831177 24.164471
537.195129 14.46759
537.287537 24.86511
538.192505 15.3649
538.268433 228.803894
538.571411 4.490385
540.200195 23.44927
540.288208 22.236111
540.722351 2.722222
541.555664 3.003205
542.221863 72.805077
542.253113 76.430527
542.459473 6.226852
544.173767 15.33951
544.280579 76.76667
544.335754 4.802778
544.447998 18.5
544.582825 6.25926
546.058167 7.696428
546.290344 54.304199
547.304688 76.559113
547.685303 11.04167
549.780334 9.490196
550.207275 18.66667
550.26062 31.08013
550.60321 3.791667
550.827759 15.51515
552.022522 6.708333
552.245667 146.116196
552.269958 101.060303
552.306396 3.25
552.646484 6.391026
553.079773 3.094697
553.212708 5.208333
553.27356 76.050163
553.734741 19.362749
553.939514 5.494048
554.199158 8.408334
554.266602 134.0896
555.054016 25.32126
555.234436 205.569305
555.383423 20.90645
556.094971 4.8
556.28064 202.1884
556.743225 7.674242
556.915588 9.445371
558.30011 112.259102
560.27948 9.1875
561.232666 30.375
562.220581 56.438141
562.292114 27.32065
563.073669 17.480021
563.267883 47.733261
563.299011 80.344841
563.420288 8.023809
563.535889 4.007576
563.651489 4.017857
563.70105 2.816667
564.841248 2.666667
564.932434 4.001812
565.643799 12.72115
565.718201 9.672619
565.751343 11.69338
566.275269 23.93511
567.291321 92.127861
568.443909 1.671296
570.291016 196.764801
570.87439 8.075
570.909912 15.14415
571.14032 10.79167
571.342224 3.002451
571.375488 27.97493
572.257202 69.328827
572.301331 33.413582
572.93811 2.695513
573.298218 56.079208
573.364685 9.342949
574.257507 71.818459
574.291382 49.84412
574.340942 46.2453
574.514832 7.031565
575.148743 9.68254
576.309082 28.04463
577.052551 7.053572
577.22876 17.585939
578.218384 28.945589
578.269226 54.837769
578.574524 6.070402
578.657776 9.815476
578.884155 6.444445
579.261353 46.713928
580.234863 94.736687
580.279236 133.8069
580.586304 2.722222
580.827087 3.034091
581.285034 174.854004
581.624451 4.675
582.307739 30.24222
583.244812 5.371913
584.29895 130.005005
584.926392 13.40514
585.061035 3.080128
585.650391 9.969203
585.902344 7.763889
586.230957 31.766029
588.263 25.02976
588.304871 13.28004
588.592346 7.291667
588.938171 3.028846
590.293518 53.20417
590.393433 5.414216
590.680237 19.63904
590.865234 22.925211
591.27063 4.054824
592.291687 43.25378
593.265808 116.8965
593.600586 7.111111
594.327881 15.23188
596.017761 19.14669
596.242188 101.086502
596.290039 66.587753
596.41626 3.066667
597.326294 21.357531
598.296021 835.692505
598.542603 25.66765
598.620544 21.959351
598.976624 5.333333
599.504578 5.357143
599.828613 2.669444
600.110596 9.159245
600.15448 2.893518
600.247009 42.993099
600.290161 87.118187
600.867737 19.197399
601.485229 7.653986
602.175659 13.63636
602.311157 16.456301
602.993958 6.856061
603.077026 4.003788
603.319519 20.732559
603.668579 6.075617
604.301758 174.001297
604.746521 7.703703
605.33844 9.388158
605.613037 6.533333
605.944336 9.68889
606.277222 117.2911
606.329956 9.472222
607.359436 8.518678
608.747864 6.702587
609.237732 12.17926
609.323364 13.25397
609.597961 3.055556
610.164978 2.347222
610.244019 66.235764
612.303711 23.9685
613.161621 5.449074
613.374512 13.38462
613.788147 9.142858
614.327515 16.32065
614.63269 10.54672
615.003967 3.675
615.10022 7.111111
615.3255 20.29657
616.220947 5.416667
616.298828 177.722595
616.315369 296.045502
616.351013 9.729167
618.829834 12.58333
620.291077 98.434631
620.425232 8.028153
620.529236 7.682539
621.352783 7.372807
621.546265 6.906746
622.261475 65.734863
622.308716 87.54464
623.11438 3.013889
623.157837 3.002451
623.34259 23.23978
624.06134 9.782407
624.26062 96.763771
624.28894 40.64151
624.49762 6.075
624.574158 13.66667
625.274658 58.795639
625.330811 7.078432
626.035645 11.04537
626.283936 121.651497
627.339966 98.31498
627.516113 15.83712
627.94519 4.297619
628.78064 2.761364
629.330261 11.32003
630.293762 8.755208
631.323975 162.053207
632.519714 5.025641
632.721008 4.681667
632.922241 5.013889
633.342712 68.918037
634.311279 280.312897
634.58136 9.675
634.665161 29.003
634.884277 7.880051
635.363586 38.73476
636.427979 7.486111
636.48938 11.53846
637.147827 4.017857
637.393738 9.527778
637.593323 17.63575
638.239807 70.694366
638.297791 22.046881
640.251465 37.095829
640.290894 128.105392
641.493164 16.334261
642.301697 32.938271
642.694641 9.426724
644.312378 134.376801
644.677979 8.001811
645.118164 20.95047
645.210144 13.78677
645.261108 16.01894
645.348999 355.789093
645.906372 14.70968
646.065491 9.060606
646.32135 27.77442
647.508789 14.4518
647.815613 14.54762
648.224731 9.027778
648.29364 32.720619
649.382019 7.428572
650.316895 4.336111
651.281128 7.815476
651.3172 48.919571
651.343689 82.11161
654.280518 130.666702
654.306274 7.69697
655.561646 9.060606
655.848999 10.45581
655.980652 5.208333
656.312805 60.387772
656.399292 4.402778
657.459595 7.552536
659.004395 5.801667
659.075867 6.422222
659.28125 10.67188
659.363586 206.045303
659.448975 4.898148
659.754761 3.355392
659.911072 15.00595
660.147461 5.786765
660.306763 271.0513
660.339783 46.984509
660.791748 28.849251
660.97998 31.362961
661.01532 6.340909
661.077942 6.006945
661.552124 14.71011
661.677368 4.083333
661.892822 11.57143
661.945862 19.81723
662.626282 3.333333
662.706909 7.481667
663.165405 3.852273
663.353149 598.6875
663.470886 45.345619
663.718628 13.03704
663.835693 14.11204
663.870667 5.388889
663.943359 11.12183
664.005432 10.76923
664.249878 70.92141
664.327881 239.579697
664.602905 15.25185
664.651672 15.83627
664.714478 14.35299
664.786255 24.423731
664.947998 12.24038
665.03772 18.17342
665.180969 10.69345
665.376648 138.278595
666.548218 15.59524
667.255188 10.37083
667.360901 19.07407
669.332458 22.67045
669.543335 29.22283
670.088928 5.017857
670.272888 29.89665
671.349365 10.4221
672.856201 23.751499
673.342712 273.052002
673.641785 4.66821
673.682007 14.12927
673.80249 23.89163
673.971375 20.65909
674.104797 21.333941
674.287659 47.726608
675.41272 7.00119
675.66449 8.482142
676.324158 805.014526
676.789368 6.075
677.368408 271.757599
677.466553 10.80474
677.629578 6.111111
677.692932 3.686404
677.774475 7.736842
677.900879 5.670455
678.502014 6.11574
678.80072 19.755951
678.843628 6.415
678.986206 16.63516
679.514526 9.375
679.949829 10.3952
680.594116 8.347826
682.275024 19.722219
682.323792 27.42289
682.683105 5.339743
682.751587 17.046169
683.301758 17.09738
683.359863 9.631173
683.546936 14.42455
683.619751 10.09643
684.285645 47.25214
684.395508 14.75266
686.300476 83.63781
687.352539 985.959595
687.472046 39.31918
687.572998 13.76179
687.670227 19.471069
687.774902 12.66312
687.84668 6.019737
687.925415 25.95648
688.252075 7.714285
688.295959 31.63117
688.403381 21.04615
688.549438 8.435606
689.09729 6.880952
689.171143 6.362179
689.750916 11.05449
689.834473 17.82995
690.037415 6.510965
690.333557 56.170021
690.358459 31.334061
691.711548 5.668333
691.793945 8.001666
692.643616 9.047619
694.328491 202.424896
694.605835 4.001812
695.258484 12.35167
695.385437 2.666667
695.77124 24.70476
696.350159 389.427307
696.546387 3.708333
696.713013 12.26833
696.99231 10.8375
697.653992 8.081897
700.0354 6.25
700.506287 22.368509
700.57489 14.86111
700.641357 13.05482
700.678284 2.347222
700.744751 50.46489
700.788757 10.84028
700.836182 11.03522
700.955872 15.54519
701.104553 9.818548
701.334656 33.095242
702.209229 3.802778
702.40271 9.204166
703.122498 6.98077
703.327148 23.123381
703.391174 15.2375
703.971497 4.898148
704.503906 5.222222
704.626465 4.002451
705.091125 18.01827
705.256592 2.669444
705.36499 4657.931152
705.494812 17.014271
705.530823 67.995956
705.578979 72.197357
705.658081 93.325394
705.720154 87.701767
705.782227 69.121834
705.833496 9.684259
705.912842 54.105782
705.979736 90.378616
706.035278 90.19104
706.113403 17.69338
706.854004 40.03331
707.092224 4.019737
707.653748 4.711957
707.797363 6.506945
708.176941 15.04344
708.337646 27.49069
708.475159 15.03374
708.723816 3.458333
708.763855 5.136111
709.047546 5.388158
710.305115 40.74107
711.142639 5.840278
712.553467 15.94676
715.346802 254.356995
715.621277 10.78205
715.667786 6.053572
715.724182 24.89583
715.912781 33.23716
717.000183 4.225
717.101746 5.068182
718.334656 17.93391
718.481201 7.339285
718.658386 8.67029
718.797363 14.43561
718.878235 5.721154
719.114929 9.033334
719.339783 15.27
719.383179 120.622704
719.779053 17.14352
719.927307 10.56522
719.992615 11.9616
720.507446 29.8981
721.103882 14.26042
721.346863 12.40333
722.757996 5.573412
723.374695 2601.539062
723.499451 4.15
723.544189 4.34375
723.581787 7.819445
723.641968 55.21648
723.716431 67.653297
723.799072 65.434464
723.862427 9.035714
723.918579 19.41333
723.969238 33.694069
724.012146 8.733334
724.060364 45.877979
724.105957 21.691669
725.03363 27.68729
725.159668 10.27171
725.332642 5.422101
725.566895 11.33929
725.810547 5.401515
726.269836 9.015
728.597229 4.531863
728.741089 9.523809
728.887939 3.708333
729.03772 6.774123
729.363342 74.395851
729.423401 4.669445
731.096802 10.40514
733.358826 930.282593
733.423828 3.816667
733.542969 41.691139
733.612854 18.921101
733.660339 54.785011
733.752258 16.778151
733.809875 18.143169
733.959167 10.71429
734.081665 16.698811
734.432373 10.3346
734.656738 11.71032
734.702271 21.940149
734.937805 23.228439
735.082581 40.529099
737.03772 13.06667
737.384216 79.952248
737.440857 19.007071
737.526611 24.31296
737.638855 12.81944
738.101807 16.04167
739.161438 5.088768
742.236145 12.48611
742.380737 5.088768
743.017456 5.333333
743.234497 24.499269
743.309937 19.345591
743.528076 9.333333
744.087952 6.880952
744.363098 3.686404
744.486816 16.20577
746.35907 28.31296
746.471313 12.64198
747.375671 1675.166992
747.554932 15.73684
747.575317 36.959518
747.637634 29.43259
747.776855 34.071621
747.869751 14.80278
747.924561 8.890432
747.977295 48.059952
748.234009 27.75009
748.497925 6.107456
748.532288 43.183281
749.354431 6.805555
749.405701 79.587173
749.672424 16.659719
750.841187 5.573412
751.031433 9.833333
751.165588 18.507851
753.139893 11.42014
756.336182 8.967105
756.590393 5.334877
758.246765 14.07101
759.952881 2.683333
760.094727 75.246986
760.182129 64.523262
760.237183 13.49123
760.339661 100.246101
760.391235 64.625504
760.470886 37.773521
760.543762 38.207722
760.738281 29.25931
760.786438 45.722641
760.9953 33.883202
761.167175 65.227348
761.317383 16.370449
761.631775 22.82386
761.7099 5.078788
761.958069 56.436131
762.026001 5.480072
762.244812 31.65064
762.371582 8.666667
762.400391 11.21802
762.592346 19.960369
762.689514 25.099199
762.717896 12.47596
762.77533 21.683741
764.347656 30.646549
764.482788 11.70395
764.544312 13.35556
764.637024 33.193451
765.109375 4.107143
765.386902 18942.769531
765.489624 81.684212
765.550232 153.050598
765.616272 31.1696
765.686829 122.028999
765.754089 314.942993
765.822876 108.908203
765.886963 128.816605
765.951416 77.965881
766.017212 121.757797
766.058105 65.68325
766.1073 165.644196
766.159302 19.54833
766.2146 193.312302
766.481689 213.851898
766.638489 98.848198
766.852722 99.988472
766.91748 110.590599
767.326599 35.92131
767.380615 12.67328
767.617798 34.648022
767.993713 21.410521
768.175171 35.941429
768.776794 17.40476
769.147217 3.746795
769.314148 13.10256
769.497253 6.786765
770.249817 16.256741
770.382874 7.814815
770.479187 20.66667
770.674011 12.13043
771.090515 4.008333
771.514465 7.334459
771.939697 6.338542
773.332275 6.054825
773.530518 14.45833
775.3703 166.344604
775.713867 27.724291
776.789795 7.429762
776.923523 28.402691
778.186646 23.060631
778.235046 18.006821
778.354797 11.29412
778.55542 3.669444
778.613708 2.041667
779.024353 6.533333
779.390503 10.22866
779.732117 3.6875
779.817871 3.703704
780.458435 6.09375
781.091003 3.691667
781.139893 12.33167
781.389893 4.75
782.058105 16.26449
782.091125 6.833333
782.348877 12.53223
782.447632 2.449074
783.398499 1661.300049
783.591675 4.402778
783.675354 17.070089
783.724182 44.746861
783.77948 7.5625
783.883972 5.025641
784.091919 39.209461
784.804932 15.19094
784.882019 19.94206
784.92572 4.005952
785.199402 7.0
785.345642 5.748333
785.443115 13.01075
785.971008 34.13541
787.267395 12.64198
788.255981 21.79701
788.576233 2.669444
789.382385 65.581253
789.58252 12.34921
790.648376 5.666667
793.136963 40.749001
793.377808 117.854301
793.536743 4.335318
793.854004 16.25988
794.428772 6.001543
794.990723 6.533333
796.047485 6.678764
796.106384 14.44167
796.203308 19.78763
796.832886 18.671671
797.420349 28.563049
797.709412 13.52134
798.385559 12.8648
801.868652 79.786797
801.949036 95.919807
802.085266 22.121429
802.134521 60.49828
802.199707 33.340099
802.271362 56.152939
802.337952 22.14389
803.012207 4.166667
803.524658 9.338889
803.912964 31.13983
804.313782 3.691667
804.36322 6.037037
804.476746 3.125
805.615051 30.19216
805.676392 36.76173
807.307556 12.44444
807.396484 11468.44043
807.518555 23.34524
807.591614 61.200001
807.632263 10.11111
807.704407 39.960529
807.755676 25.170139
807.775879 138.953506
807.811096 39.349869
807.872192 86.713097
807.935913 48.504311
807.993408 130.217697
808.045837 191.825699
808.137207 141.420105
808.205627 130.0345
808.757996 119.313103
808.9552 73.810806
808.987244 24.546949
809.083923 34.453701
809.163879 14.56019
809.383118 5.010417
809.697083 25.51786
810.019409 8.680555
810.125549 4.763889
810.254272 7.75
810.38446 15.75758
810.917908 3.333333
811.412109 7.708333
811.663025 26.0303
811.850647 14.3818
811.987549 3.080128
812.038452 7.714285
812.622742 2.016667
812.951172 6.001984
813.019165 15.22929
813.168274 4.66821
814.180481 21.452221
815.426758 5.5
817.370178 2.708333
817.976868 16.741911
819.380554 10.58671
819.439819 31.674999
819.679199 26.177629
819.744507 37.765141
819.798645 130.126999
819.857605 168.918396
819.928345 131.924606
820.033875 222.642105
820.102417 84.815628
820.150574 159.516495
820.235046 111.865501
820.451172 197.994003
820.810608 84.590736
820.971313 19.414289
821.173157 18.69207
821.351624 44.670792
821.477661 30.49441
821.539795 44.408298
821.620117 15.75521
821.712219 36.116581
821.814941 3.266667
821.913025 22.077379
822.016357 7.5
822.14801 42.567829
822.242249 61.64257
822.316467 49.01503
822.586365 37.490749
822.936646 33.89249
823.019104 10.66779
823.369263 39.018639
823.618042 56.095581
823.838562 17.47554
823.924133 51.762501
824.172363 15.30797
824.692383 56.270859
824.760864 12.97573
824.814453 20.922979
825.044495 5.136111
825.267212 28.908899
825.306763 472.193207
825.408997 63793.871094
825.858826 48.878311
825.901367 117.940903
826.002136 374.161194
826.087402 284.50119
826.145264 446.957092
826.218811 85.359398
826.556885 230.614197
826.757202 245.391098
826.909485 139.309097
826.951111 197.3396
827.799072 80.64344
828.078308 83.600616
828.187378 70.953362
828.246948 69.523354
828.357544 44.531719
828.403748 11.0819
828.482727 66.099213
828.604675 37.748299
828.797119 39.880169
828.899048 22.432529
829.028259 8.736538
829.644775 24.55035
829.759583 4.668334
830.104736 24.6602
830.194397 5.347222
830.441162 22.372471
830.521362 65.097549
830.839417 18.127081
831.233337 8.772322
831.47113 6.002778
832.028198 22.25679
832.176636 7.969086
832.648193 2.666667
832.92926 28.72003
832.983337 10.27222
833.852966 6.703703
834.013977 26.390409
834.386414 18.6509
834.757568 5.688889
835.202881 14.42803
835.501526 15.19286
835.843994 17.08276
835.900208 7.639194
836.148254 10.59461
836.608032 6.011364
836.715942 24.212891
837.853882 4.630952
840.185242 4.490385
842.833801 23.56061
844.424561 13.0151
844.768311 11.14982
847.794495 4.349638
849.598267 2.003788
851.972534 8.395833
859.927246 12.675
861.034058 10.10289
861.840698 8.057693
867.44873 8.815
876.05365 4.107143
882.207092 16.256411
930.872192 31.488461
1131.065796 34.10894
1273.246216 2.0
1387.600098 14.80278
1443.523438 9.639493
