>compound Clarithromycin
>formula C38H69NO13 
>ionization [M+H]+
>parentmass 748.48291
#inchi InChI=1S/C38H69NO13/c1-15-26-38(10,45)31(42)21(4)28(40)19(2)17-37(9,47-14)33(52-35-29(41)25(39(11)12)16-20(3)48-35)22(5)30(23(6)34(44)50-26)51-27-18-36(8,46-13)32(43)24(7)49-27/h19-27,29-33,35,41-43,45H,15-18H2,1-14H3/t19-,20-,21+,22+,23-,24+,25+,26-,27+,29-,30+,31-,32+,33-,35+,36-,37-,38-/m1/s1
#inchikey AGOYDEPGAOXOCK
#Ion_Source LC-ESI
#Instrument qTof
#Compound_Source Isolated
#PI Sirenas
#Data_Collector Ed Esquenazi 
#Scan -1
#Precursor_MZ 748.486
#ExactMass 0.0
#Charge 1
#CAS_Number N/A
#Pubmed_ID N/A
#Smiles N/A
#INCHI_AUX N/A
#Library_Class 3
#SpectrumID CCMSLIB00000004871
#IonMode Positive
#UpdateWorkflowName UPDATE-SINGLE-ANNOTATED-BRONZE
#LibraryQualityString Bronze
#TaskID d19310cd93df49b68e9fcbec27720eb5
##Scan# 1
#SpectrumFile Clarithromycin.mgf
#LibraryName fda_library.mgf
#MQScore -1
#Organism fda_library
#TIC_Query 0
#RT_Query -1
#MZErrorPPM -1
#SharedPeaks 0
#MassDiff 0
#LibMZ -1
#SpecMZ 748.486
#SpecCharge 0
#internalFilename spec-00000.mgf

>collision 10
115.07547 222.228699
116.066437 39.026772
116.105988 259.598785
116.187012 19.79431
116.467255 7.2
127.075615 21.237009
149.164398 15.60333
157.307419 25.676189
157.377243 7.078432
157.700363 10.67949
158.116104 889.550476
158.151184 17.5553
158.183624 2.354167
158.295074 6.422222
158.343231 4.681667
158.36731 5.458333
158.391388 11.92628
158.610413 9.642095
159.307419 11.80449
316.211304 100.588699
365.230682 8.703947
468.10849 24.04545
522.33136 33.341671
540.424316 27.736111
558.366699 169.347397
558.835144 9.388888
559.880493 10.34405
586.547974 11.07407
586.901917 9.157895
587.574951 1.680555
587.728027 1.666667
589.452087 10.45581
590.332092 6.633772
590.386902 673.570374
590.480835 1.666667
590.776917 4.670455
590.819824 14.38782
590.890869 14.13854
590.960938 55.69664
592.29126 3.36218
593.172119 8.338235
607.970886 23.44537
703.122681 2.125
716.460083 43.53146
717.040222 3.386905
717.648499 14.7555
741.012268 6.022223
742.632507 3.703704
743.381653 4.0
743.476624 4.380952
743.646973 4.034091
743.763428 4.335145
743.836487 10.28409
743.918457 2.75
744.064758 5.666667
744.235596 11.70238
744.453857 13.07756
744.539124 1.720238
744.602844 9.5625
744.996826 13.82692
745.0896 20.34437
745.2229 13.03241
745.431946 12.40333
745.626038 9.84375
746.201599 8.507184
746.553528 3.490385
748.216064 3.053571
748.288818 93.139961
748.369019 8.005952
748.48291 4424.096191
748.553162 7.416667
748.595459 7.382576
748.63623 15.65881
748.703247 86.631607
748.75592 49.92131
748.862244 104.6129
748.955627 47.09037
749.017334 11.66667
749.087219 55.356449
749.422852 19.22884
749.556885 36.329071
750.000305 12.24498
750.173401 11.06138
750.743347 10.125
751.081909 12.88889
751.16095 61.42268
751.720154 1.720238
752.058105 18.17708
752.515259 7.74074
752.767029 21.09375
753.50708 12.2
754.616272 7.719017
755.429321 4.898148
