>compound Glipizide
>formula C21H27N5O4S 
>ionization [M+H]+
>parentmass 446.184387
#inchi InChI=1S/C21H27N5O4S/c1-15-13-24-19(14-23-15)20(27)22-12-11-16-7-9-18(10-8-16)31(29,30)26-21(28)25-17-5-3-2-4-6-17/h7-10,13-14,17H,2-6,11-12H2,1H3,(H,22,27)(H2,25,26,28)
#inchikey ZJJXGWJIGJFDTL
#Ion_Source LC-ESI
#Instrument qTof
#Compound_Source Isolated
#PI Sirenas
#Data_Collector Ed Esquenazi 
#Scan -1
#Precursor_MZ 446.187
#ExactMass 0.0
#Charge 1
#CAS_Number N/A
#Pubmed_ID N/A
#Smiles N/A
#INCHI_AUX N/A
#Library_Class 3
#SpectrumID CCMSLIB00000006553
#IonMode Positive
#UpdateWorkflowName UPDATE-SINGLE-ANNOTATED-BRONZE
#LibraryQualityString Bronze
#TaskID d19310cd93df49b68e9fcbec27720eb5
##Scan# 1
#SpectrumFile Glipizide.mgf
#LibraryName fda_library.mgf
#MQScore -1
#Organism fda_library
#TIC_Query 0
#RT_Query -1
#MZErrorPPM -1
#SharedPeaks 0
#MassDiff 0
#LibMZ -1
#SpecMZ 446.187
#SpecCharge 0
#internalFilename spec-00000.mgf

>collision 10
100.111984 4755.789062
100.154213 41.506119
100.270645 19.803419
100.542908 18.08666
100.584389 15.41879
100.676521 16.156919
103.052094 34.673611
120.056854 51.048771
131.058014 23.510969
150.443268 36.900002
167.016678 415.907288
240.107361 20.016029
256.102051 102.374496
258.062042 39.966049
286.064056 448.487793
302.297363 18.3382
304.074585 783.793884
304.16333 19.161011
304.226257 35.546089
305.031036 40.39677
314.677917 26.822491
319.109589 19.89444
319.140533 32.459042
319.20874 21.42976
319.309296 57.535931
319.423492 25.70076
319.891968 19.67308
319.993805 25.125
320.859711 33.97546
320.971863 17.721149
321.028168 21.98374
321.067444 42.783051
321.10141 15290.5
321.177094 143.275894
321.202362 77.224953
321.234589 77.870949
321.269928 33.221298
321.331482 105.627296
321.38266 33.35078
321.413422 61.090809
321.456512 55.39468
321.487213 41.59478
321.529846 85.987106
321.540985 22.66667
321.578674 70.378647
321.605255 38.845341
321.625793 26.361111
321.725769 52.986351
321.801086 65.56337
321.869019 36.366402
321.93811 30.49514
322.386322 16.523649
323.004303 18.870939
323.557556 19.285721
326.850861 16.410521
345.163818 16.710541
346.846252 38.628269
347.080566 3917.399902
347.164581 76.060707
347.216888 29.0016
347.240784 24.851851
347.268707 31.639151
347.302917 27.63059
347.379547 29.003099
347.472534 16.962959
347.501404 30.809971
347.566528 29.68791
347.683105 46.653069
347.729187 27.131941
347.771973 27.670811
347.896149 24.74091
347.928589 16.0651
348.719055 26.86021
349.431335 15.37255
403.169495 20.346769
446.184387 1684.090942
446.43277 35.824459
446.499207 39.960941
446.837006 23.075001
447.145477 16.335779
