>compound Enterocin
>formula C22H20O10 
>ionization [M+H]+
>parentmass 445.111084
#inchi InChI=1S/C22H20O10/c1-30-11-7-12(31-14(23)8-11)16-20(27)9-13-18(25)21(16,28)17(22(20,29)19(26)32-13)15(24)10-5-3-2-4-6-10/h2-8,13,16-18,25,27-29H,9H2,1H3/t13-,16-,17+,18?,20-,21+,22-/m1/s1
#inchikey CTBBEXWJRAPJIZ
#Ion_Source LC-ESI
#Instrument qTof
#Compound_Source Isolated
#PI Fenical-Jensen-Moore
#Data_Collector Max
#Scan -1
#Precursor_MZ 445.113
#ExactMass 444.106
#Charge 1
#CAS_Number N/A
#Pubmed_ID N/A
#Smiles N/A
#INCHI_AUX N/A
#Library_Class 1
#SpectrumID CCMSLIB00000001645
#IonMode Positive
#UpdateWorkflowName UPDATE-SINGLE-ANNOTATED-GOLD
#LibraryQualityString Gold
#TaskID d14a5843653040ba9fa2c4376f2be358
##Scan# 1
#SpectrumFile e1.mgf
#LibraryName gnps_library.mgf
#MQScore -1
#Organism gnps_library
#TIC_Query 0
#RT_Query -1
#MZErrorPPM -1
#SharedPeaks 0
#MassDiff 0
#LibMZ -1
#SpecMZ 445.113
#SpecCharge 0
#internalFilename spec-00000.mgf

>collision 10
51.023438 952.8703
51.09034 24.669291
52.027233 26.87347
53.001881 43.414959
53.03867 457.406403
55.017998 598.021301
55.050674 40.053028
56.024395 31.62079
57.033222 122.500198
59.013309 1025.952026
60.016636 52.697399
63.021935 31.76001
65.039124 142.761505
66.042992 23.893351
67.018135 270.810486
67.053513 79.850403
68.024361 103.093201
68.997368 2301.187012
69.033783 2762.389893
69.111031 69.253113
70.000084 126.824203
70.036789 167.166107
71.011688 32.90649
71.047592 53.762001
73.064163 56.467709
77.038544 15313.599609
77.119995 328.96991
77.29631 25.38727
78.041969 995.99762
79.01712 108.506203
79.053215 232.202194
80.025528 45.534729
81.03273 177.6707
82.038185 51.64497
83.011261 144.948196
83.049194 110.950699
85.02845 172.907806
89.038139 71.604248
90.045578 91.105392
91.054146 364.419586
92.057083 46.610371
93.033203 299.985199
94.039207 38.67178
95.01329 296.339905
95.048065 346.382202
96.017616 72.880417
97.028091 154.063705
97.060883 61.977428
98.032188 67.906403
99.04335 439.678894
100.046936 41.91724
101.039688 36.34074
102.04583 79.296478
103.053574 343.501404
104.057785 50.449631
105.033104 23510.169922
105.439804 30.152719
105.542282 24.04833
106.03653 2295.715088
106.132507 41.80368
106.157097 24.341249
107.012863 106.314102
107.044518 205.104401
108.020416 287.325104
108.053825 70.609047
109.027718 274.805206
109.061066 53.474861
110.032173 50.5308
111.006042 41.15041
111.04332 509.958801
112.04924 107.648499
113.056107 27.920429
115.054298 258.81311
116.05825 103.136497
117.06916 107.9729
118.04055 139.560898
119.014404 54.856998
119.047684 169.927795
120.050697 42.360859
121.025398 114.751198
121.063858 176.001602
122.037689 31.16782
122.065445 48.963001
123.005432 35.59137
123.043198 452.690002
124.012115 54.522011
124.047211 66.959343
125.022545 4011.010986
125.126663 72.763847
125.153023 26.70525
126.026016 518.213989
127.051064 175.818695
128.059784 142.046402
129.033936 64.662567
129.067139 174.417694
130.039398 31.66748
131.048752 294.650208
132.054535 74.853279
133.027573 60.208328
133.064087 290.251801
134.035324 73.109497
134.06517 39.713669
135.006363 77.038353
135.044479 253.945297
135.074692 70.30674
136.010269 24.55703
136.051102 57.90535
137.023483 344.905396
137.057114 260.84671
138.028519 66.016724
139.038513 645.287476
140.044434 220.154297
141.056458 709.452698
142.056931 89.748779
143.047714 84.193878
143.079758 27.39616
144.054337 96.382858
145.027588 130.241501
145.063095 143.437195
146.035522 166.188904
147.006195 28.671049
147.042694 958.75
148.045914 117.952698
149.02243 103.779701
149.059006 179.476395
150.05925 53.67062
151.0383 414.984192
151.070526 223.174301
152.006882 38.93586
152.060181 174.199799
153.018311 188.265701
153.064835 317.477203
154.022171 53.58371
154.063705 55.49963
155.048264 122.371498
155.081161 82.751541
157.029083 62.488689
157.063568 164.509796
158.035965 24.00444
158.069244 37.916672
159.042297 197.451096
160.048859 81.188667
161.058655 629.200684
162.027161 69.17334
162.060486 101.726799
163.036133 137.524704
163.073395 113.271698
164.058319 61.386089
165.013382 31.24667
165.064377 486.433014
166.025528 28.85701
166.068619 102.8983
167.032898 2433.694092
167.154129 46.987419
168.036804 348.400085
169.057999 118.283401
170.036957 37.86031
171.042084 151.710999
172.048431 38.140141
173.021164 89.271507
173.058563 215.252396
174.029633 58.736191
174.060654 37.037109
175.039032 215.971695
176.054413 85.953171
177.053253 550.285217
178.067307 183.100006
179.031052 150.396301
179.070526 257.289612
180.054581 37.044441
181.062393 187.186096
182.062866 74.90313
183.076462 99.137428
184.053284 24.01791
185.058563 161.317307
186.028763 33.359421
186.06044 71.07164
187.038605 60.027809
187.074951 54.636162
188.042496 40.427738
189.055267 491.600494
190.022491 42.666698
190.061188 153.679199
191.074753 165.454102
192.082733 66.930443
193.050812 336.28241
194.058472 71.809998
195.063583 245.158798
196.069839 114.951302
197.059799 250.339996
199.040543 110.723297
200.050034 70.083366
201.014511 24.933201
201.053696 144.020294
202.023758 86.178757
202.075668 238.417999
203.035553 181.899994
203.072876 211.219498
204.077698 74.168694
205.050186 372.917786
206.063446 116.2771
207.066299 350.531494
208.073303 78.862007
209.054779 222.881195
210.062286 79.127457
211.072327 72.792473
213.055634 136.581894
214.059235 46.184261
215.073944 119.728798
216.081146 44.070148
217.050369 164.037506
218.067688 103.461502
219.054657 87.725143
220.080399 45.249321
221.05687 144.553207
221.088165 78.764549
222.054291 107.495697
223.060669 148.673996
224.069122 107.830803
225.050995 85.521812
226.059174 117.6371
227.061752 116.370796
229.012634 159.300995
229.050995 87.57122
230.014633 58.350658
230.069885 47.202179
231.071762 212.078796
232.074982 80.094368
233.051224 151.224304
234.06427 76.774544
235.058182 479.901398
236.062897 109.108299
237.056168 153.514206
238.058212 49.888939
238.088516 29.276819
239.069733 120.888199
241.050858 58.53513
242.052673 28.434999
243.065414 94.507973
244.068405 56.045502
245.047363 92.944473
246.065887 52.608051
247.072128 95.657516
248.080307 60.501869
249.080017 99.440277
250.081528 29.265869
251.054886 413.658813
252.060455 203.868607
253.070953 162.308105
254.070007 39.51754
257.057068 42.87405
258.063354 34.391571
259.061218 206.621704
260.073853 92.010406
261.049713 159.4561
262.042969 48.307041
263.059387 58.19836
263.095917 26.07412
264.070648 51.706779
265.050934 84.797737
267.073944 61.883869
273.057648 42.58667
275.066864 71.108147
276.079437 57.193249
277.081818 170.685699
278.085144 62.952209
279.083344 45.521049
281.075012 41.883678
286.060944 28.694441
287.061523 97.424454
288.058228 25.16679
289.061859 43.95134
291.098511 75.927513
292.101532 29.33535
293.080597 77.159599
295.090759 93.17704
296.102112 32.76276
297.07132 42.663391
303.061462 52.613331
304.065918 44.243198
305.075745 106.8526
306.075653 43.12344
307.092834 70.093353
308.100311 38.703369
309.104767 35.357571
315.069366 25.217079
319.095459 111.903801
320.096588 38.467079
321.075256 74.681671
322.073273 30.01314
323.082947 51.88271
329.069641 24.04134
332.065247 25.56954
335.090759 137.566101
336.092194 81.059937
337.099335 69.542641
338.106781 29.66186
345.071136 36.373341
347.088135 80.181183
348.093872 30.97834
349.06958 23.932819
351.068573 26.686359
353.103302 82.839996
354.102417 42.258781
363.084656 176.511002
364.087524 60.796139
365.095764 91.391296
366.106354 32.211269
381.097137 183.334702
382.099396 76.429848
383.0979 49.601921
391.080292 87.600479
392.080811 47.138611
399.106903 54.598431
409.092163 94.497864
410.090332 39.17495
427.101868 177.286896
428.102325 63.959641
429.105469 28.2631
445.111084 265.218689
446.119537 99.498428
447.114624 42.833328
