>compound Ranitidine
>formula C13H22N4O3S 
>ionization [M+H]+
>parentmass 315.14798
#inchi InChI=1S/C13H22N4O3S/c1-14-13(9-17(18)19)15-6-7-21-10-12-5-4-11(20-12)8-16(2)3/h4-5,9,14-15H,6-8,10H2,1-3H3/b13-9+
#inchikey VMXUWOKSQNHOCA
#Ion_Source LC-ESI
#Instrument qTof
#Compound_Source Isolated
#PI Sirenas
#Data_Collector Ed Esquenazi 
#Scan -1
#Precursor_MZ 315.15
#ExactMass 0.0
#Charge 1
#CAS_Number N/A
#Pubmed_ID N/A
#Smiles N/A
#INCHI_AUX N/A
#Library_Class 3
#SpectrumID CCMSLIB00000006509
#IonMode Positive
#UpdateWorkflowName UPDATE-SINGLE-ANNOTATED-BRONZE
#LibraryQualityString Bronze
#TaskID d19310cd93df49b68e9fcbec27720eb5
##Scan# 2
#SpectrumFile Ranitidine.mgf
#LibraryName fda_library.mgf
#MQScore -1
#Organism fda_library
#TIC_Query 0
#RT_Query -1
#MZErrorPPM -1
#SharedPeaks 0
#MassDiff 0
#LibMZ -1
#SpecMZ 315.15
#SpecCharge 0
#internalFilename spec-00000.mgf

>collision 10
100.011848 19.15369
100.058784 59.42519
100.092201 8.520061
100.203377 11.90705
100.412529 3.034091
100.700043 7.633772
101.005661 6.786765
101.033142 611.58667
101.069099 17.373369
101.104393 3.185606
101.144264 18.671301
101.197708 26.04167
101.243919 5.668011
101.257919 10.67432
101.278931 12.0
101.348976 9.960366
101.408501 15.43678
101.437134 3.416667
101.443344 5.844298
101.506622 3.333333
101.520645 3.003788
101.60479 2.680556
101.692474 10.45833
101.703049 10.36687
101.825829 17.678921
102.037415 7549.874023
102.077637 51.610569
102.095871 19.28269
102.103348 13.0
102.133614 11.15833
102.156082 8.011363
102.170128 3.367424
102.182938 37.557758
102.236977 3.677083
102.26503 4.333333
102.286224 11.4
102.36824 5.408333
102.374779 3.802778
102.393379 3.266667
102.398849 11.33435
102.406158 14.84396
102.421257 13.66786
102.453957 12.5608
102.462227 13.14881
102.495308 39.750542
102.521378 14.49167
102.555069 53.56646
102.754936 19.453699
103.040688 29.70146
103.280739 8.815476
103.373665 4.964286
103.592186 7.130208
105.068283 23.92157
106.257652 5.335526
106.465775 10.68314
107.047539 492.610504
107.094849 2.680556
107.19928 13.3869
107.537048 21.771931
108.078033 41.0
108.084229 59.338619
108.101387 3.823718
108.752518 9.927083
109.011101 6.341667
109.029404 168.291901
109.063232 47.809521
109.074501 26.82143
109.465942 14.08681
109.586861 17.037359
109.786491 7.334596
109.911263 4.115741
110.061226 473.050903
110.096016 2470.583984
110.131615 10.15
110.145348 22.788891
110.242607 11.68182
110.250587 33.265148
110.354118 5.297619
110.370491 7.335145
110.37719 5.190476
110.461967 5.708333
110.514999 13.36303
110.542336 7.016304
110.633797 9.020833
111.110382 8.818548
111.198044 18.66865
111.499046 4.0
112.14283 6.022223
113.00267 11.00833
113.068726 247.969299
113.074425 74.923393
113.146568 4.708333
113.242371 4.041667
113.602745 9.00641
113.628525 5.680555
114.027618 7.935
114.03595 63.860199
114.07798 1836.92395
114.122459 8.018518
114.282684 23.938391
114.319519 10.50508
114.329727 9.852564
114.380638 9.25641
114.387299 3.75
114.655327 11.8
114.879425 18.480261
115.033722 486.456909
115.261314 7.240079
115.299797 12.09643
115.72612 7.347222
116.524635 6.728535
117.024628 13.00765
117.04744 1288.541016
117.083443 10.91136
117.096146 3.727941
117.107437 2.678571
117.209106 7.704166
117.254303 6.012931
117.26561 23.33511
117.287704 10.59414
117.297874 3.416667
117.348503 5.335
117.477058 14.21894
117.553978 1.875
118.031776 1238.093994
118.239655 4.695513
118.697746 9.016666
119.451973 9.875
120.044113 44.515591
120.070473 32.374222
120.082458 19.964279
121.063126 8.881579
121.074593 161.399796
121.672508 7.0
122.025436 13.41667
122.060524 64.036217
122.08371 127.4674
122.09713 77.347412
122.170265 7.347222
122.264183 3.669444
123.066658 167.023102
123.364891 8.916667
123.384575 16.823151
123.393532 25.1334
123.436386 5.333333
123.490242 9.104167
123.784492 18.78578
123.915154 6.002778
123.998665 45.763981
124.035324 44.30217
124.0756 8131.012207
124.121475 15.00107
124.128654 87.579987
124.164146 10.85698
124.171936 13.17729
124.191338 22.519449
124.218376 15.62143
124.226128 6.805555
124.248238 99.664619
124.259621 21.457319
124.288193 11.00093
124.300652 6.260417
124.313232 14.24405
124.334946 54.98465
124.353058 5.75
124.362022 25.12948
124.372932 75.774612
124.392319 50.541
124.417091 6.371212
124.428009 10.93452
124.440086 7.708333
124.453232 14.76793
124.463928 24.16073
124.488579 38.300041
124.532631 18.465429
124.552048 5.335318
124.567482 27.17046
124.582253 12.09375
124.591354 5.773809
124.613853 27.175421
124.685715 9.585318
124.699089 9.028846
124.720772 17.99786
124.913223 6.522727
125.005455 24311.730469
125.050583 178.995804
125.079071 48.127338
125.108788 26.163891
125.128204 27.563971
125.14341 10.38889
125.154213 19.68597
125.171028 31.889549
125.18322 29.015869
125.190285 39.24358
125.21228 63.48016
125.231888 40.708641
125.256332 32.742889
125.274536 10.88095
125.286926 17.360559
125.300049 19.02541
125.32402 37.637421
125.332031 17.98732
125.344131 34.4673
125.380409 10.71354
125.397926 9.001543
125.416809 27.074329
125.435837 15.26667
125.44239 25.307051
125.456795 20.99626
125.470001 12.05833
125.49852 5.481482
125.512878 5.001437
125.517616 20.475
125.53241 28.6686
125.575272 29.218691
125.610336 11.3787
125.62603 34.73579
125.702324 11.82841
125.724182 16.901819
125.775803 21.244841
125.800735 37.042419
125.846077 27.92889
125.87561 21.33514
126.025169 41.302139
126.238861 15.42247
126.344856 28.495871
126.357925 30.8578
126.367882 8.666667
126.375702 5.0
126.645668 1.675
126.696342 7.219203
126.727936 19.292601
126.829773 6.333333
126.857201 13.33333
127.308205 10.33446
128.18898 6.00641
129.013519 4.734848
129.027161 40.441811
129.048386 617.762085
129.107971 2.75
129.147903 7.130208
129.236862 3.958333
129.29422 7.338542
129.302139 3.666667
129.309296 7.722222
129.331146 27.27273
129.348557 24.98975
129.364853 29.09621
129.397247 11.46354
129.407333 51.089642
129.424774 46.41407
129.432907 12.88741
129.463394 72.850899
129.505569 33.352982
129.520844 29.83333
129.552826 23.75609
129.563354 12.06888
129.584167 27.09973
129.610107 12.73252
129.646469 21.667629
129.689774 16.0
129.729721 4.083333
129.745575 10.12745
129.871445 51.723862
129.959 42.348518
129.987411 13.9
130.010025 23.892611
130.029907 37.285469
130.056076 34827.800781
130.173645 32.777779
130.191284 10.63095
130.213715 30.23151
130.236755 48.255821
130.250305 31.445959
130.260666 76.291702
130.277954 50.9631
130.289001 34.41618
130.300323 93.695297
130.316116 44.471191
130.333939 37.05555
130.351593 53.077042
130.367371 73.912567
130.379837 35.235119
130.391418 14.28885
130.416473 26.296881
130.442108 42.263279
130.455887 24.880951
130.473373 46.82888
130.504105 16.95833
130.540192 36.848728
130.556076 14.4221
130.575485 11.7947
130.603592 8.779321
130.610764 5.444445
130.633087 21.23712
130.646652 7.671568
130.662567 8.122549
130.677643 18.01766
130.69603 30.625681
130.747192 23.418421
130.821579 25.859131
130.874573 24.2323
130.889572 26.2598
130.913223 15.94092
130.924805 32.532822
131.012817 40.86393
131.059845 411.528015
131.116272 22.334089
131.129257 25.844191
131.160812 7.041667
131.609833 15.60269
131.650635 9.527778
132.030869 68.900002
132.044006 45.161758
132.094025 15.34848
132.479965 6.160257
132.703522 10.08333
132.857758 4.669445
133.011292 3.336111
133.072815 37.002449
133.3405 5.358974
133.485153 4.382936
134.019836 99.761292
134.059494 26.907789
134.08284 18.92308
134.439545 9.783046
134.629089 11.33654
134.713821 21.33602
135.025925 69.57177
135.064316 138.196106
135.090179 682.935974
135.178619 3.666667
135.23877 6.335318
135.421417 6.160257
135.642166 22.313129
135.657623 22.14822
135.697037 6.98077
136.036713 95.576729
136.074188 233.540405
136.285095 8.031566
136.362289 5.346264
136.419159 5.335526
136.435455 21.637609
136.488235 3.342592
136.981766 6.906746
137.029877 81.828346
137.083344 165.992798
137.163193 9.25
137.248642 14.14881
137.343079 8.333333
137.367554 10.42976
137.400162 7.843137
137.709991 4.802778
137.787842 5.673077
137.894028 7.001543
137.906677 2.675
138.016205 41.779461
138.067474 38.129391
138.090698 3777.5979
138.141724 12.06408
138.316711 28.4401
138.360764 15.18947
138.503403 5.76923
138.632675 8.469444
138.675629 8.388441
138.802429 5.787879
139.04364 95.716026
139.081848 18.907789
139.286499 3.666667
139.557617 11.00397
139.58638 13.79839
139.717255 5.375
140.055344 46.333649
140.067596 13.80952
140.106842 111.363297
140.129837 6.427083
143.063431 20.34981
143.219986 33.179409
143.253845 6.708333
143.297485 22.50733
143.356079 9.840517
143.368378 6.001812
143.389496 5.427083
143.418365 6.351191
143.455719 4.016667
143.472092 9.555555
143.480865 3.080128
143.526581 11.015
143.54509 29.94697
143.589233 3.016667
143.615067 8.223765
143.67099 4.630952
143.744812 6.906746
143.922943 8.601191
143.985687 13.35556
144.076447 9111.322266
144.12767 77.944023
144.143906 35.97348
144.152939 13.76066
144.162933 25.08333
144.174576 4.054824
144.194336 9.00119
144.232147 25.37262
144.246033 5.136111
144.277237 36.15926
144.315536 15.84444
144.333633 36.214439
144.34935 26.36463
144.37558 5.136111
144.391251 4.354167
144.408539 19.70083
144.419922 14.34015
144.449387 30.35507
144.470306 21.523741
144.49118 10.05235
144.526321 28.62318
144.555862 22.73447
144.58316 10.66848
144.642487 17.896669
144.672104 18.594139
144.683365 11.0704
144.760345 3.266667
144.806396 3.002451
144.837387 18.489811
144.888412 4.367424
144.990814 6.095238
145.042374 1004.489014
145.705643 5.157052
145.908463 14.7555
145.933212 19.494049
146.17749 21.146339
146.261185 4.001812
146.34903 7.069445
146.884537 5.037037
146.947327 8.083333
147.021347 583.181091
147.064133 150.625504
147.074387 26.33399
147.154495 6.160257
147.298035 8.240196
147.361359 6.805555
147.957413 9.0
148.074554 1182.302002
148.112076 12.34073
148.208618 1.720238
148.318512 2.708333
148.359924 11.87879
148.381241 5.166667
148.635254 7.372807
148.677673 9.527778
148.703262 12.26667
149.013062 5.669872
149.080917 168.431107
149.106567 132.063095
149.117935 2.777778
149.274323 17.38241
149.297638 4.408333
149.761963 16.53178
150.012619 8.122549
150.115128 74.65197
150.170578 4.898148
150.66806 5.458333
150.99556 28.148939
151.049591 85.224564
151.085373 26.862009
151.11644 49.67194
151.127823 6.680555
152.027634 234.495499
152.186325 6.906746
152.202148 8.044118
152.307327 3.25
152.730515 11.13807
152.798477 9.208333
153.036728 2832.63501
153.100479 6.75
153.120178 8.382936
153.160889 12.8648
153.211884 20.24107
153.246872 16.33396
153.26384 39.65564
153.295868 10.10897
153.324402 9.527778
153.341629 8.881579
153.393372 15.00113
153.432114 11.58954
153.55191 13.11552
153.626083 9.67029
153.793869 6.906746
153.816696 6.341667
153.884918 12.38889
153.905655 6.041667
154.05426 550.906616
154.063507 72.580757
154.087814 7.667683
154.412399 15.79605
154.459427 5.347222
154.633102 23.72205
158.034729 66.148811
158.044174 68.003197
159.04158 26.67845
159.090424 139.646103
159.465775 10.0
160.052902 111.098503
160.076859 17.19298
160.097641 127.484001
160.259247 5.088768
160.523315 12.0
161.040634 194.784393
162.490723 9.72
162.586823 3.440476
162.79686 10.34543
163.085648 455.633698
163.119934 306.86261
163.313583 4.898148
163.350311 23.349211
163.587906 4.363636
163.72142 13.01708
163.779297 4.009259
164.064438 30.44079
164.09407 1538.604004
164.166016 10.88587
164.184692 5.681667
164.203583 28.025
164.225159 31.42095
164.273819 13.00521
164.308716 9.666667
164.425491 6.352941
164.460541 22.804119
164.577209 2.669444
164.586136 8.166667
164.644943 15.92803
164.6754 12.0
164.827225 6.001344
164.979126 13.69551
164.99234 9.458333
165.037216 9.339286
165.061081 42.932419
165.074036 28.37359
165.102081 4331.880859
165.15361 18.688101
165.165161 5.013889
165.202728 21.44421
165.243347 3.367424
165.265228 12.48981
165.29483 18.35813
165.332321 3.666667
165.354675 10.68116
165.364105 7.410257
165.385849 7.054825
165.394943 8.668103
165.435379 27.85692
165.444153 24.0005
165.459076 18.226851
165.525986 3.047619
165.637909 8.818548
165.706833 9.428571
166.054352 76.204086
166.506378 8.411765
166.660492 6.483334
167.063217 2085.250977
167.121124 30.415739
167.250977 9.224999
167.303009 6.857143
167.348022 13.26453
167.400909 3.055556
167.437531 10.69551
167.455246 9.122475
167.663589 7.935
167.774719 7.482143
167.811554 15.92803
167.936951 12.33969
168.388092 5.755435
169.029236 16.830429
169.040344 21.04167
169.056 192.956604
169.093063 4.708333
169.103531 11.40789
169.432526 7.355556
169.667358 3.555556
169.966995 8.721774
170.063019 4729.612793
170.119278 52.125488
170.161575 22.785839
170.198669 13.05333
170.225967 11.40833
170.241592 30.465111
170.253937 55.46664
170.270782 22.54427
170.303238 11.67083
170.3405 8.596528
170.356522 10.60606
170.366638 9.342054
170.38504 35.84687
170.416245 16.022221
170.432831 11.01429
170.473206 14.75556
170.498352 9.706141
170.539261 5.840278
170.58522 17.45192
170.606674 11.68889
170.676178 10.50694
170.834671 8.336957
171.541672 25.495939
173.408829 7.763095
173.442001 14.00833
174.166107 12.37306
174.832062 7.656609
174.900497 21.6099
174.934006 21.73489
174.965332 7.560484
174.983505 41.179779
175.010757 22.877781
175.023804 30.938959
175.03476 52.79213
175.053558 14.79167
175.071274 28.38459
175.081726 11.44048
175.100723 35.815479
175.114609 24.0375
175.126373 9.75
175.131851 96.30468
175.158188 41.24239
175.176086 90.112007
175.220856 113.821503
175.240753 36.714169
175.256668 11.82843
175.266098 9.815
175.298309 58.828209
175.330276 43.445679
175.365891 9.117262
175.379547 7.022059
175.418732 29.963011
175.452927 85.945183
175.513687 36.907051
175.566391 33.60667
175.780762 9.773936
175.812622 14.02778
175.850281 15.49709
175.873199 19.75214
175.933472 15.93426
175.969925 2.666667
175.997604 4.37037
176.048935 66350.492188
176.255524 10.64881
176.308426 114.782799
176.333344 57.062569
176.352997 108.252998
176.364227 62.998299
176.381302 58.029419
176.408417 127.139
176.435577 86.905571
176.471634 53.78418
176.48764 215.220001
176.528549 112.401703
176.550674 29.66667
176.560867 125.645897
176.572296 38.312439
176.607269 34.867851
176.616653 25.000851
176.659988 38.82061
176.67807 80.426903
176.712357 96.570061
176.74295 59.241619
176.768829 11.36364
176.792343 14.36134
176.806046 43.2738
176.854446 22.52035
176.880997 34.777
176.988205 18.59572
177.101807 1599.983032
177.147675 7.225
177.222778 6.020833
177.281815 18.27899
177.313995 6.453703
177.426605 44.708759
177.621902 21.67099
177.760651 14.14667
177.821152 24.775
177.845856 8.132247
177.904221 5.666667
177.941269 3.746795
178.029327 412.090393
178.066666 3.347222
178.109253 1339.093994
178.168808 4.083333
178.261703 7.677381
178.275635 9.078488
178.368744 11.94737
178.401077 5.001667
178.442703 12.71002
178.482697 5.166667
178.544708 31.012711
178.56839 9.388514
178.585602 5.964285
178.697479 4.555556
178.973068 4.0
179.05835 8.003205
179.182556 7.018518
179.531998 21.732901
179.681183 8.416667
180.007767 7.386905
180.08136 15.85339
180.166275 14.07407
180.217865 10.34722
180.301941 4.37037
180.409393 5.668104
180.456512 12.60119
180.572983 12.01965
180.884628 12.97436
181.054184 307.5354
181.078842 2690.362061
181.134918 27.55521
181.260101 11.80342
181.303253 32.801239
181.363892 3.028846
181.383118 25.862009
181.401367 13.33333
181.435287 12.68987
181.527908 4.763889
181.574783 9.005555
181.621719 2.761364
181.696686 8.523648
181.720139 6.0
181.827225 6.898148
181.861389 4.041667
182.059586 107.3368
182.076721 7.005952
183.070221 44.135971
183.336182 3.703704
183.67627 6.75
187.472275 3.0
188.046356 105.6436
188.681091 9.897988
190.044983 23.045401
190.067673 10.73016
190.097031 17.81818
190.139099 28.00399
190.173264 2.761364
190.200958 16.18445
190.295868 25.08246
190.340622 14.3375
190.384659 22.45833
190.398712 9.668478
190.461166 11.38851
190.627472 9.280303
190.790192 3.875
190.813232 6.041667
191.063904 31.165079
191.117416 7439.564941
191.175873 67.120697
191.196396 14.14982
191.215179 5.413462
191.254807 62.210972
191.278229 12.66667
191.355637 68.574791
191.373627 15.47222
191.388992 8.647059
191.404922 10.10417
191.418259 4.225
191.473221 26.25458
191.508987 12.10887
191.528503 10.7787
191.543549 21.18421
191.584259 24.43627
191.605911 16.879999
191.636078 12.04167
191.674377 30.81761
191.698715 48.96524
191.717087 3.555556
191.738037 13.94246
191.769135 11.61404
191.812668 7.666667
191.928329 5.742284
191.991165 25.71517
192.048767 612.766479
192.069458 24.242821
192.237061 9.941379
192.396118 10.72803
192.840317 2.669444
192.904053 17.336109
193.013229 8.407609
193.055817 2638.322998
193.13028 3.335526
193.159851 28.923201
193.206985 14.97543
193.236664 5.734848
193.259888 7.531863
193.270508 11.60333
193.29953 6.338235
193.323715 6.335145
193.387421 21.334009
193.428818 20.74094
193.503006 40.56514
193.551132 9.370833
193.733185 14.5625
193.82225 5.361111
194.539444 3.354167
194.608963 6.740942
194.669205 6.592949
195.072006 678.795898
195.112717 4.340278
195.511398 9.0
195.650421 5.19853
195.805801 6.333333
195.853012 6.708333
196.041443 382.529297
196.060379 229.029205
196.102295 68.344254
196.179062 11.70417
196.275848 13.39844
196.293716 14.91132
196.417297 21.42149
197.501373 3.354167
205.074051 137.149002
206.536942 5.583333
206.694427 2.666667
207.054855 8.068182
207.092194 54.79427
207.114914 34.068359
207.180222 7.714285
207.447464 7.884804
208.077667 29.697309
209.051575 59.78529
209.070267 232.947098
209.157486 6.030303
209.276718 11.15705
209.35878 2.722222
211.404312 5.444445
214.608551 29.906981
215.11911 193.974503
222.708008 4.408333
222.761627 11.29412
222.796707 17.12097
222.829895 21.13242
222.854431 7.5
222.902588 47.713348
222.952087 1.6875
222.967667 10.00556
222.988449 13.35299
223.009232 10.69089
223.090088 468.44519
223.482529 24.81175
223.63829 8.789634
223.663849 5.005952
223.725311 33.305069
224.000168 7.088889
224.065063 75.545029
224.097458 11089.490234
224.163025 223.363602
224.201294 47.67355
224.240005 15.50038
224.258514 54.703289
224.278717 8.015
224.291687 61.556389
224.332657 20.808611
224.351135 59.597408
224.36412 26.522141
224.39566 29.162531
224.423203 24.50141
224.445404 8.001985
224.483963 47.53513
224.529922 23.39566
224.586975 29.601891
224.60582 20.146669
224.618011 12.39583
224.633499 5.19853
224.673264 18.9881
224.878204 6.700269
224.943802 9.432749
225.217438 16.111111
225.646011 5.013889
225.69838 3.857143
225.771851 24.868811
225.901657 6.345238
226.018845 13.0
227.077667 7.721154
227.767349 3.727941
229.967087 4.335784
232.331497 4.136111
235.072083 32.603771
239.087433 22.341311
241.091614 64.94838
242.112411 14.21338
252.080978 16.125
254.094727 30.807409
254.792221 11.39103
268.333405 4.002451
268.374268 18.980391
268.73819 13.90542
268.770111 17.52466
268.875519 15.52161
268.920715 9.740741
269.074493 6.394608
269.571472 9.091216
270.091217 2033.948975
270.148682 8.680555
270.164948 10.80238
270.177277 4.061275
270.25238 33.714512
270.298218 27.41667
270.417633 9.674243
270.506165 3.208333
270.573334 6.42803
270.6008 6.552536
270.697876 9.667592
270.869293 8.355556
270.995605 7.138889
271.030151 6.061274
271.058594 7.678764
271.319611 22.527941
271.511719 5.265351
271.724304 10.66667
272.465332 50.572338
272.572784 3.402778
273.688202 17.067209
275.978577 28.34129
313.250397 10.73485
313.490295 28.96113
314.038361 19.000589
315.14798 918.30127
315.20459 10.06586
315.361328 3.047619
315.482971 11.75
315.613586 3.816667
315.690826 13.00556
315.779297 3.333333
316.066498 12.2549
316.632996 5.673611
317.686188 1.675
430.642761 10.00521
565.427185 14.48611
1408.516846 26.793579
1468.294067 7.897436
1504.532837 3.041667
