>compound MLS002207036-01!Propachlor1918-16-7
>formula C11H14ClNO
>ionization [M+H]+
>parentmass 212.085
#inchi InChI=1S/C11H14ClNO/c1-9(2)13(11(14)8-12)10-6-4-3-5-7-10/h3-7,9H,8H2,1-2H3
#inchikey MFOUDYKPLGXPGO
#Ion_Source LC-ESI
#Instrument qTof
#Compound_Source NIH Pharmacologically Active Library
#PI Dorrestein
#Data_Collector VP/LMS
#Scan -1
#Precursor_MZ 212.085
#ExactMass 211.076
#Charge 1
#CAS_Number N/A
#Pubmed_ID N/A
#Smiles CC(C)N(C(=O)CCl)c1ccccc1
#INCHI_AUX N/A
#Library_Class 1
#SpectrumID CCMSLIB00000085991
#IonMode Positive
#UpdateWorkflowName UPDATE-SINGLE-ANNOTATED-GOLD
#LibraryQualityString Gold
#TaskID d252d724072548979f1f6f1ced849daf
##Scan# 1946
#SpectrumFile p5-A02_GA2_01_18431.mzXML
#LibraryName Pharm_Active_Library.mgf
#MQScore -1
#Organism Pharm_Active_Library
#TIC_Query 0
#RT_Query -1
#MZErrorPPM -1
#SharedPeaks 0
#MassDiff 0
#LibMZ -1
#SpecMZ 212.085
#SpecCharge 0
#internalFilename spec-00000.mgf

>collision 10
46.340599 184.0
47.303448 156.0
47.450031 148.0
48.049671 44.0
49.530212 116.0
49.677399 232.0
49.86274 92.0
50.464661 128.0
51.409271 168.0
51.577801 160.0
52.316563 140.0
53.297157 52.0
53.407642 184.0
54.254597 228.0
54.683517 200.0
55.034363 204.0
55.42485 144.0
57.766514 164.0
59.2784 224.0
60.451828 132.0
63.794468 176.0
63.94239 236.0
66.373039 192.0
66.705856 164.0
67.442635 68.0
68.631203 152.0
69.986588 120.0
70.319992 88.0
73.438133 248.0
74.014046 152.0
74.169945 232.0
75.409225 168.0
76.515938 172.0
78.031059 196.0
78.585854 116.0
79.078888 196.0
79.383598 132.0
79.759987 136.0
81.227791 60.0
81.784813 232.0
82.725266 180.0
83.12944 116.0
84.36068 184.0
86.283653 268.0
87.804443 192.0
88.106827 168.0
91.056435 216.0
91.452187 92.0
92.043167 44.0
93.060081 244.0
93.342346 136.0
94.037804 176.0
94.06707 2456.0
94.095718 204.0
94.437752 68.0
94.749405 60.0
95.050232 512.0
95.068596 52.0
95.882248 128.0
95.946571 116.0
96.028465 152.0
96.071381 84.0
96.518639 52.0
98.701271 240.0
99.004036 188.0
100.35128 68.0
100.912315 200.0
103.157951 148.0
104.045265 160.0
104.958801 192.0
105.036301 424.0
106.027931 196.0
106.066757 2088.0
106.095573 72.0
106.116074 72.0
106.137093 48.0
106.179642 52.0
106.750549 52.0
107.068497 292.0
107.32505 120.0
107.963127 144.0
108.068619 140.0
108.681923 184.0
108.877052 104.0
111.118919 144.0
112.006989 296.0
112.98555 208.0
113.769669 64.0
115.076874 120.0
115.382385 208.0
117.058228 496.0
119.088882 120.0
122.957672 140.0
123.959465 164.0
124.252144 128.0
124.403046 60.0
124.514069 248.0
124.571815 172.0
124.831856 64.0
125.012947 188.0
125.125244 56.0
125.174545 128.0
127.278709 108.0
128.029785 52.0
128.88472 192.0
129.006775 168.0
131.733749 144.0
132.928894 188.0
134.060165 708.0
134.600082 124.0
135.062286 180.0
135.880035 136.0
136.344437 128.0
137.768097 200.0
139.119339 88.0
143.472321 180.0
147.633499 160.0
149.961761 184.0
150.39592 164.0
152.028152 1172.0
153.03125 184.0
153.931244 152.0
154.025223 548.0
154.472504 172.0
160.224426 136.0
166.679672 228.0
168.576248 204.0
169.090881 212.0
169.329071 100.0
169.487091 96.0
169.715179 192.0
169.922668 216.0
170.037201 4444.0
170.613495 64.0
170.956833 80.0
171.042221 440.0
172.034164 1320.0
172.310104 92.0
172.336227 136.0
172.799011 64.0
172.872269 48.0
173.034561 148.0
183.09668 240.0
183.277161 64.0
184.391663 80.0
184.421387 48.0
214.097076 160.0
253.784851 100.0
390.062744 108.0
789.877869 72.0
811.044434 76.0
820.05896 124.0
827.319092 124.0
907.654297 80.0
909.069946 140.0
933.608948 88.0
933.730591 92.0
935.178589 236.0
937.797607 152.0
952.90033 196.0
984.666382 184.0
989.343506 180.0
989.60022 72.0
1049.819092 128.0
1053.543335 188.0
1072.869507 176.0
1077.476929 124.0
1081.079712 208.0
1085.717773 216.0
1092.29895 160.0
1093.154175 164.0
1093.746582 180.0
1094.826294 196.0
1095.557373 192.0
1134.206543 132.0
1137.392578 236.0
1153.329346 188.0
1175.756104 224.0
1181.119507 156.0
1192.707642 136.0
1193.862671 156.0
1201.535767 212.0
1201.908325 124.0
1202.591553 104.0
1205.181274 216.0
1213.570068 176.0
1236.376221 212.0
1252.588135 32.0
1273.766724 204.0
1300.048218 212.0
1303.796875 184.0
1309.631714 252.0
1310.546631 140.0
1324.59082 200.0
1325.590576 232.0
1328.55603 220.0
1330.784058 48.0
1344.600342 120.0
1347.170532 172.0
1347.469971 188.0
1348.909668 108.0
1352.852539 72.0
1357.512451 140.0
1361.658813 148.0
1379.083496 148.0
1381.146362 196.0
1383.714233 128.0
1392.464111 228.0
1396.670898 196.0
1401.740967 156.0
1422.060059 196.0
1434.780029 228.0
1438.106567 116.0
1460.709351 44.0
1467.19751 172.0
1478.571045 136.0
1486.932373 112.0
1498.012207 152.0
1498.505249 172.0
1502.707153 220.0
