>compound CLARITHROMYCIN
>formula C38H69NO13
>ionization [M+Na]+
>parentmass 770.464294
#inchi InChI=1S/C38H69NO13/c1-15-26-38(10,45)31(42)21(4)28(40)19(2)17-37(9,47-14)33(52-35-29(41)25(39(11)12)16-20(3)48-35)22(5)30(23(6)34(44)50-26)51-27-18-36(8,46-13)32(43)24(7)49-27/h19-27,29-33,35,41-43,45H,15-18H2,1-14H3/t19-,20-,21+,22+,23-,24+,25+,26-,27+,29-,30+,31-,32+,33-,35+,36-,37-,38-/m1/s1
#inchikey AGOYDEPGAOXOCK
#Ion_Source LC-ESI
#Instrument qTof
#Compound_Source Commercial
#PI Dorrestein
#Data_Collector Garg_Neha
#Scan -1
#Precursor_MZ 770.466
#ExactMass 747.477
#Charge 1
#CAS_Number N/A
#Pubmed_ID N/A
#Smiles CC[C@H]1OC(=O)[C@H](C)[C@@H](O[C@H]2C[C@@](C)(OC)[C@@H](O)[C@H](C)O2)[C@H](C)[C@@H](O[C@@H]3O[C@H](C)C[C@@H]([C@H]3O)N(C)C)[C@@](C)(C[C@@H](C)C(=O)[C@H](C)[C@@H](O)[C@]1(C)O)OC
#INCHI_AUX N/A
#Library_Class 1
#SpectrumID CCMSLIB00000078999
#IonMode Positive
#UpdateWorkflowName UPDATE-SINGLE-ANNOTATED-GOLD
#LibraryQualityString Gold
#TaskID 278b19f5865741e282cec7349aa7e7a1
##Scan# 1211
#SpectrumFile NCP003352_C2_D11_BC5_01_15719.mzXML
#LibraryName NIHcollectionI_05062014.mgf
#MQScore -1
#Organism NIHcollectionI_05062014
#TIC_Query 0
#RT_Query -1
#MZErrorPPM -1
#SharedPeaks 0
#MassDiff 0
#LibMZ -1
#SpecMZ 770.466
#SpecCharge 0
#internalFilename spec-00000.mgf

>collision 10
52.021706 156.0
79.190262 152.0
104.321274 180.0
109.065468 1184.0
109.101158 160.0
110.072067 200.0
116.107933 196.0
126.699638 228.0
127.077156 144.0
128.067642 184.0
135.11734 188.0
171.099213 152.0
174.116516 536.0
174.734436 156.0
175.114624 148.0
177.11821 144.0
215.127151 352.0
226.112534 180.0
233.991196 152.0
257.040375 152.0
257.091431 240.0
269.19455 164.0
291.167969 180.0
313.182129 172.0
320.23407 216.0
375.250122 144.0
388.217896 156.0
436.301392 156.0
437.249969 184.0
455.263397 312.0
464.299377 112.0
473.281647 160.0
498.301697 276.0
499.305725 228.0
518.363281 156.0
519.759888 148.0
520.327271 148.0
532.416321 160.0
533.389771 180.0
540.351379 160.0
550.37262 524.0
551.36731 212.0
556.308655 252.0
558.336365 104.0
575.884216 212.0
580.349426 96.0
594.360535 160.0
595.332703 528.0
596.335571 136.0
610.569763 160.0
612.37207 2172.0
612.681396 160.0
613.370789 704.0
614.363831 296.0
656.387024 136.0
677.80249 152.0
680.48407 148.0
681.855408 140.0
684.998047 144.0
702.475159 176.0
725.410156 216.0
738.197937 148.0
739.435364 124.0
752.439148 264.0
752.477417 164.0
759.525818 140.0
765.813721 160.0
769.000549 164.0
769.442139 140.0
770.346863 140.0
770.464294 16196.0
770.704407 140.0
771.219177 100.0
771.468811 6996.0
771.608887 120.0
771.682251 144.0
771.88623 100.0
772.099792 144.0
772.450928 4496.0
772.597534 120.0
772.673767 124.0
773.450134 1528.0
773.56189 128.0
773.612732 208.0
773.919434 104.0
774.13385 220.0
774.277466 128.0
774.459229 1032.0
775.191284 124.0
775.276245 148.0
775.343079 104.0
775.512451 116.0
776.585999 144.0
804.322754 140.0
1570.03772 140.0
1831.533325 148.0
