>compound Cilostazol
>formula C20H27N5O2 
>ionization [M+H]+
>parentmass 370.224518
#inchi InChI=1S/C20H27N5O2/c26-20-12-9-15-14-17(10-11-18(15)21-20)27-13-5-4-8-19-22-23-24-25(19)16-6-2-1-3-7-16/h10-11,14,16H,1-9,12-13H2,(H,21,26)
#inchikey RRGUKTPIGVIEKM
#Ion_Source LC-ESI
#Instrument qTof
#Compound_Source Isolated
#PI Sirenas
#Data_Collector Ed Esquenazi 
#Scan -1
#Precursor_MZ 370.225
#ExactMass 0.0
#Charge 1
#CAS_Number N/A
#Pubmed_ID N/A
#Smiles N/A
#INCHI_AUX N/A
#Library_Class 3
#SpectrumID CCMSLIB00000006417
#IonMode Positive
#UpdateWorkflowName UPDATE-SINGLE-ANNOTATED-BRONZE
#LibraryQualityString Bronze
#TaskID d19310cd93df49b68e9fcbec27720eb5
##Scan# 2
#SpectrumFile Cilostazol.mgf
#LibraryName fda_library.mgf
#MQScore -1
#Organism fda_library
#TIC_Query 0
#RT_Query -1
#MZErrorPPM -1
#SharedPeaks 0
#MassDiff 0
#LibMZ -1
#SpecMZ 370.225
#SpecCharge 0
#internalFilename spec-00000.mgf

>collision 10
100.123405 9.33422
104.867256 8.06586
106.065308 80.799538
108.043556 85.390694
113.106148 24.402781
116.048645 22.602079
117.718468 9.355556
118.066002 37.51709
118.175568 9.122475
120.044441 51.153198
120.085808 28.793579
120.178238 12.51852
120.994377 17.466669
121.484566 13.52447
122.058594 62.816189
124.074234 25.683201
124.263641 10.44643
124.278282 12.4902
124.316597 3.337121
124.323524 27.430559
124.352196 7.875
124.366325 11.05511
124.380547 95.36264
124.401207 16.21312
124.418747 34.11655
124.431908 95.812767
124.441017 47.961899
124.467773 25.823151
124.482185 16.73284
124.493729 10.69697
124.508247 64.691452
124.519035 84.253113
124.528229 22.403481
124.542236 28.025459
124.560005 66.542999
124.573166 27.093691
124.584152 17.72024
124.599312 39.0144
124.610611 21.39448
124.629616 25.6891
124.645271 8.667735
124.672455 6.403736
124.68927 18.606819
124.717018 22.831499
124.746506 5.680555
124.769661 6.927469
124.78125 9.672619
124.8134 15.54825
124.870644 6.399193
124.901741 11.48457
124.936775 21.57823
124.955742 17.0
124.991188 11.33446
125.061836 11.75521
125.082581 55474.550781
125.129654 82.927017
125.166832 19.680559
125.215828 15.19737
125.230507 26.66667
125.244057 17.13611
125.265602 21.32971
125.275146 16.002781
125.283852 12.3182
125.298378 19.38081
125.31089 29.76153
125.339775 58.15004
125.392082 31.74892
125.407684 8.668478
125.415779 74.322708
125.452255 63.569889
125.463493 113.043198
125.488304 14.50417
125.502922 59.660641
125.53289 27.980539
125.56411 85.647278
125.598709 18.01667
125.60463 25.89942
125.641556 10.78392
125.661201 26.36434
125.679588 53.75457
125.68869 18.32428
125.698547 36.420292
125.711334 38.008339
125.735954 25.90675
125.743546 27.260611
125.755577 9.185897
125.770546 58.744431
125.838493 23.545731
125.856323 38.807751
125.888214 30.9827
125.981041 8.108871
126.024521 20.08013
126.039635 16.667521
126.085457 572.867493
126.117744 4.382936
126.236168 15.74074
126.284958 14.37162
126.32827 14.84314
126.371819 13.3536
126.402969 17.386669
126.43866 14.98214
126.473503 8.138888
126.528297 10.01852
126.62281 39.162231
126.799721 13.35041
126.819473 10.92045
126.893959 27.05781
126.917961 8.375
127.008125 13.66667
127.031647 11.875
127.049294 9.117248
127.162758 15.41987
127.190498 12.90774
127.484924 9.411765
127.535645 5.034091
127.669746 24.094959
128.051193 12.3344
128.989197 9.856061
130.066589 26.037041
131.060562 10.66801
131.505005 3.916667
132.077591 19.989031
132.293503 20.081671
133.086609 16.588539
134.060623 263.344391
134.895554 8.186728
135.066452 124.542099
135.520691 20.58333
135.551041 2.333333
136.077255 53.45335
137.070099 32.341049
137.090057 4.339286
138.482971 13.66768
145.042908 8.939394
145.062424 89.930656
146.059555 278.336609
146.09314 100.514702
146.127853 3.010417
147.066498 122.8237
147.236481 16.911579
147.255859 6.004902
148.074966 699.324829
148.28772 9.694819
148.499664 16.080879
148.789368 6.866667
149.08139 14.36111
152.301407 7.410257
153.066467 19.90991
156.332733 9.866667
156.376434 12.96429
158.060165 92.384003
158.348999 3.375
159.136383 8.94697
160.076126 373.414612
160.624771 11.75212
161.042007 86.344872
161.098236 16.242649
161.221039 6.001984
161.23381 23.000441
161.569672 9.386905
161.967926 4.44079
161.991074 4.669872
162.054825 2075.748047
162.106354 12.19444
162.127365 3.669444
162.193939 17.76115
162.207138 16.667629
162.271454 25.125
162.351974 2.041667
162.366653 7.334349
162.415405 10.67222
162.481918 5.349638
162.497528 10.19167
162.521942 12.13564
162.583038 8.074275
163.099243 75.200043
163.144318 4.115741
163.192169 22.438669
163.285751 7.430555
163.328598 10.7097
163.356003 26.25461
163.423401 3.760417
163.5168 7.017544
163.564667 11.14815
163.742188 3.335526
163.787445 5.42803
163.897385 4.708333
163.953064 4.340278
164.070374 6042.925781
164.105042 237.722794
164.141556 30.25926
164.169998 7.449074
164.186386 9.523809
164.222183 36.341671
164.250671 4.15
164.260559 7.041667
164.277725 36.13866
164.332565 45.22097
164.372589 8.016666
164.394211 3.066667
164.406982 15.3952
164.421234 21.37121
164.452881 29.216829
164.470184 7.335
164.483566 4.678571
164.523727 10.17754
164.532654 11.66954
164.542816 6.201666
164.588333 19.39739
164.621918 12.36012
164.662445 11.5653
164.672012 8.890432
164.735901 55.751942
165.06427 25.700001
165.073883 260.878601
165.31897 10.67105
165.538223 8.680555
165.762131 19.674629
166.063461 38.0854
167.860413 12.87076
169.206284 10.32143
171.067642 37.347221
172.206238 18.507851
172.234726 4.888889
173.068985 395.07489
173.106583 11.67308
173.709045 8.401667
174.054581 54.20322
174.090317 692.025879
174.128998 4.736111
174.454651 3.791667
174.799789 8.733334
174.970001 12.69338
175.023788 5.075
175.122375 17.73173
175.142792 12.00015
175.166702 37.91045
175.236481 13.0732
175.296875 12.38475
175.340729 17.51919
175.394516 12.15
175.505524 28.526751
175.60788 10.44048
175.886963 11.83712
175.979324 18.765949
176.070847 9621.810547
176.123901 93.875908
176.140961 21.06127
176.157593 27.0
176.242859 32.68055
176.266724 50.793541
176.287369 36.51263
176.319 36.43269
176.34201 56.800869
176.358505 15.77174
176.375473 22.93116
176.3862 25.906839
176.399521 20.354759
176.420044 35.64246
176.44516 18.441389
176.462875 26.82688
176.491165 44.029919
176.533493 17.818741
176.556854 5.671297
176.575256 25.083481
176.594391 8.037879
176.654694 29.63571
176.688431 21.901449
176.713013 20.926279
176.80542 55.36253
176.870377 12.77083
176.967056 23.34981
177.002472 3.760417
177.642258 14.70833
177.839371 13.78677
178.308243 15.1201
178.447647 5.666667
179.08522 20.063681
179.128464 33.43029
184.066162 8.926282
184.075851 261.927612
184.132782 3.720238
184.459885 6.160257
184.48262 3.888889
184.649506 5.773809
185.150314 6.121212
186.084641 107.8265
186.339523 15.8293
187.048218 72.023338
187.196213 10.80474
187.310471 9.04344
187.949036 10.11574
188.071213 63.774269
188.093872 23.7787
188.311676 14.8125
188.760712 5.703703
189.036758 10.1859
189.06601 1214.56897
189.138901 6.481482
189.286819 13.47704
189.568604 7.786765
189.596817 4.816667
189.615448 4.6
189.650757 6.783046
189.736908 14.02815
189.823257 9.096429
189.904755 4.351191
190.084244 385.242188
190.119385 16.61742
190.178207 4.760417
190.202103 10.67325
190.220016 6.741667
191.273422 19.034611
191.639374 7.004167
196.409363 35.463501
198.091385 382.374908
198.510391 12.79167
199.006439 38.789139
199.123077 19.363331
199.393677 5.333333
199.752335 4.6875
199.845108 20.15064
199.874176 24.783331
199.884506 39.001461
199.980377 6.777778
200.070801 454.231506
200.106522 446.089203
200.714767 15.4
200.755142 10.08333
200.819565 9.65661
200.954025 5.160714
200.972839 6.408333
200.992645 24.027639
201.038712 7.987319
201.065674 3713.427979
201.168289 37.816391
201.197495 11.45732
201.237869 80.504433
201.268936 20.45315
201.332474 8.856061
201.363052 20.78842
201.385376 25.83082
201.440552 6.523809
201.522903 16.6875
201.549545 33.043129
201.639923 8.148809
201.653656 17.35714
201.683777 27.00102
201.777786 16.20577
201.808533 20.46154
201.841644 12.83333
202.025284 18.375
202.086319 4394.674805
202.153015 40.674179
202.325668 3.347222
202.340317 15.40278
202.370926 13.44298
202.41835 29.97436
202.445297 7.668011
202.465103 7.411765
202.519547 15.33847
202.623657 11.3375
202.707703 5.133333
202.870209 26.493549
202.976501 15.49396
203.109787 25.07843
203.679688 4.335
203.793365 8.083333
204.515182 4.066667
205.137024 9.082317
205.916138 11.11574
206.223633 4.259615
206.739487 19.53389
207.160934 831.948914
207.220062 3.686404
207.320084 4.107143
207.349304 12.86833
207.513855 7.926282
207.572495 12.04167
213.202011 9.004386
214.091888 11.60333
214.12265 23.27273
214.448547 9.002778
214.733734 5.678764
214.845901 5.729167
215.082413 236.937302
215.117966 506.895386
215.161591 5.932018
216.102173 582.501526
216.19519 6.075
216.60582 6.699999
216.690674 5.382936
216.802979 14.10714
216.848419 24.044661
216.898987 19.463751
216.928223 30.403839
216.962173 8.346265
217.013428 4.336538
217.039047 8.049797
217.068466 4.782407
217.092422 48.61174
217.479858 6.041667
218.015015 41.104252
218.070206 17.34347
218.117416 7073.36377
218.181 67.440292
218.198959 24.067209
218.22049 18.6371
218.251236 14.44445
218.282181 2.14881
218.312988 5.891666
218.353195 12.46959
218.39415 14.11204
218.434906 7.394608
218.447189 9.641026
218.480835 24.475
218.540558 35.85767
218.605042 9.895326
218.666794 15.63889
218.711624 18.278971
218.767715 32.026482
218.800125 7.44079
218.815979 4.0
218.862793 8.45
218.904465 26.319099
218.938629 15.13889
218.962585 24.856131
219.197128 17.33824
219.337326 12.60417
219.394348 24.38027
219.408188 8.338235
219.626785 25.41416
219.686722 43.373329
219.97319 15.8848
220.305969 4.694444
221.16423 4.225
221.567474 11.02042
225.860214 17.46538
226.084778 409.3302
226.104797 101.596298
226.153107 4.003205
226.181885 10.33333
226.222488 4.75
226.50209 10.34722
227.006683 7.005208
227.316025 14.66764
227.400116 7.291667
228.096573 223.210999
228.345245 6.027778
228.38205 7.676802
230.116119 61.183762
232.108154 30.578329
241.78302 18.519449
241.955017 7.933333
242.071793 9.527778
242.124069 57.578831
243.111893 3947.448975
243.178635 41.390121
243.21492 11.675
243.274765 32.47245
243.318314 7.083333
243.344711 4.6875
243.399307 3.791667
243.42453 45.952961
243.451065 6.671297
243.475708 7.355556
243.519135 13.225
243.603073 20.804741
243.622299 4.017857
243.661453 28.656361
243.709183 11.01708
243.724564 1.680555
243.763397 5.856061
243.997131 2.347222
244.088303 4.115741
244.249451 8.707735
244.3927 30.68943
244.793396 22.1686
245.128189 1350.723999
245.219818 8.0
245.324875 8.601191
245.357574 19.116631
245.379349 6.668104
245.439285 17.882839
245.55809 9.453431
245.677856 2.14881
245.962784 7.698232
246.151062 37.26075
246.191803 20.3592
246.475937 12.68003
247.306808 4.017857
247.668015 5.088768
258.614319 9.777778
258.693848 5.670455
258.996307 4.333333
259.041321 8.033334
259.618164 5.840278
260.138733 2122.579102
260.219177 7.178571
260.26886 8.030303
260.416809 5.136111
260.443909 13.32099
260.536804 12.11265
260.564423 3.973485
260.605652 16.694441
260.661743 14.68254
260.683472 45.21619
260.808319 10.30242
260.830322 11.37778
260.858368 18.6901
260.954071 6.927469
262.236847 7.075617
283.454468 5.041667
284.892487 4.297619
285.831573 6.344048
286.245056 14.72854
286.311279 41.290169
286.349426 12.66793
286.40155 32.364059
286.420563 65.188553
286.458588 37.808331
286.47702 74.98616
286.50824 89.274048
286.538208 9.055181
286.559998 80.332542
286.624237 49.872971
286.643982 5.336111
286.673248 7.335784
286.693878 10.0
286.712189 15.47806
286.744354 19.97854
286.767517 13.66935
286.791077 7.377451
286.869873 8.692307
287.044464 8.066667
287.068024 4.694444
287.085724 7.041667
287.103882 16.354839
287.149933 8.160714
287.641418 55.60574
287.744781 14.78914
287.768829 9.592742
287.830627 12.32018
287.864319 5.041667
287.913757 20.2451
288.02948 4.714286
288.080658 218.727203
288.10141 55.211849
288.146545 31881.369141
288.211273 56.49807
288.242279 15.6586
288.295319 8.708333
288.316559 18.90247
288.336853 21.00333
288.372955 95.177879
288.383667 50.77523
288.401672 18.394609
288.42157 148.020599
288.491699 84.626709
288.529785 94.980782
288.604919 99.640533
288.633118 35.861351
288.658752 44.781631
288.698303 124.598297
288.745636 51.34108
288.768097 14.67677
288.785461 55.278278
288.812256 97.032768
288.838959 29.6674
288.937683 64.281731
288.977417 19.857679
289.009888 40.76585
289.223755 9.063725
289.262146 73.184769
289.352234 23.50724
289.538483 22.604271
289.64624 32.112179
289.825958 51.963501
289.894897 36.21479
289.990753 26.30971
290.07016 6.364899
290.179352 35.375
290.445007 4.469445
290.508881 7.49359
290.58847 10.38075
291.121033 3.926282
291.148193 17.213381
291.265228 2.25
291.947327 22.74802
292.357727 3.640152
292.427185 14.6771
292.994202 14.55952
294.029663 16.376341
294.22406 11.34722
300.194031 7.2
308.156921 28.295891
312.576263 7.666667
325.190582 27.028761
338.767761 6.446428
342.218384 20.994499
343.859406 15.16009
367.886871 13.41223
367.916931 21.559521
367.939514 6.049603
367.979553 9.670834
368.138367 11.68421
368.299957 10.96014
368.451538 5.741667
368.520142 21.51759
369.274902 22.68462
369.656494 11.69338
370.138428 10.66886
370.224518 4695.979004
370.32547 5.966667
370.391296 26.36434
370.463501 14.80227
370.499756 6.671297
370.564636 27.647181
370.63208 34.111759
370.667236 44.015862
370.729309 88.069366
370.781067 16.33333
370.82843 16.538191
370.86145 4.0
370.950867 23.280609
371.073273 28.749981
371.103394 52.613991
371.310455 15.00521
371.421783 15.45398
371.51358 3.852273
371.685974 16.66733
371.933868 26.02722
372.293793 13.02778
372.358368 12.70383
372.417725 23.51903
372.497955 14.29167
372.827026 12.47414
373.049469 19.479731
374.185699 11.87879
375.066193 14.57353
379.805359 8.022223
380.376099 4.027778
383.984985 6.932018
449.961823 78.007072
450.053528 4.333333
1115.765259 14.02042
1479.059814 7.594136
1684.371338 28.04891
1694.238281 20.35854
