>compound Eplerenone
>formula C24H30O6 
>ionization [M+H]+
>parentmass 415.212
#inchi InChI=1S/C24H30O6/c1-21-7-4-14(25)10-13(21)11-15(20(27)28-3)19-16-5-8-23(9-6-18(26)30-23)22(16,2)12-17-24(19,21)29-17/h10,15-17,19H,4-9,11-12H2,1-3H3/t15-,16+,17-,19+,21+,22+,23-,24-/m1/s1
#inchikey JUKPWJGBANNWMW
#Ion_Source LC-ESI
#Instrument qTof
#Compound_Source Isolated
#PI Sirenas
#Data_Collector Ed Esquenazi 
#Scan -1
#Precursor_MZ 415.212
#ExactMass 0.0
#Charge 1
#CAS_Number N/A
#Pubmed_ID N/A
#Smiles N/A
#INCHI_AUX N/A
#Library_Class 3
#SpectrumID CCMSLIB00000004471
#IonMode Positive
#UpdateWorkflowName UPDATE-SINGLE-ANNOTATED-BRONZE
#LibraryQualityString Bronze
#TaskID d19310cd93df49b68e9fcbec27720eb5
##Scan# 3
#SpectrumFile Eplerenone.mgf
#LibraryName fda_library.mgf
#MQScore -1
#Organism fda_library
#TIC_Query 0
#RT_Query -1
#MZErrorPPM -1
#SharedPeaks 0
#MassDiff 0
#LibMZ -1
#SpecMZ 415.212
#SpecCharge 0
#internalFilename spec-00000.mgf

>collision 10
101.022568 27.730949
101.057663 27.12888
103.052223 102.597801
104.775482 17.33396
105.00705 28.83523
105.069916 1099.311035
107.048981 680.638977
107.08519 555.607727
107.627121 11.33396
109.06385 165.690399
109.102196 47.239288
109.288399 10.45337
111.043793 1049.541016
111.079712 46.411221
111.727737 12.5731
113.061249 79.423271
115.053207 170.430206
116.717506 20.495081
117.069824 751.264709
119.046295 75.639511
119.085083 1099.957031
119.269058 18.224871
120.442032 14.41208
120.612991 10.58486
121.064789 6083.674805
121.102501 107.232597
121.111305 19.839821
121.222069 21.764561
121.229782 10.89005
121.278404 10.00987
121.32058 20.193211
121.362267 14.54061
121.407341 20.95405
121.586105 19.45513
121.704376 10.84964
123.045776 35.83102
123.080132 392.44931
125.059311 167.7686
125.093575 37.0882
127.050735 13.34904
127.074188 19.72473
128.062088 77.072746
129.070053 333.376587
129.437622 10.33854
130.078415 66.0345
130.488327 21.689791
131.016632 12.91782
131.048233 498.060303
131.085098 732.614929
131.240738 16.007681
131.480011 10.0464
133.028381 19.940821
133.064255 547.842224
133.100632 869.890381
135.042145 67.802711
135.080109 987.857178
135.147186 12.87728
137.057846 40.99902
137.094925 118.665398
139.033401 14.33
139.074341 14.61375
141.070862 43.80711
141.08844 45.48077
142.076889 174.624603
143.05014 20.494829
143.084824 1300.297974
143.598572 18.166809
144.056305 32.04895
144.300446 13.86232
144.347153 25.91415
145.064697 612.828186
145.099182 239.881302
145.553207 13.05581
145.917374 11.92594
147.042953 19.31867
147.080154 850.849792
147.11586 329.158203
147.142868 14.98897
148.05043 26.682631
149.060425 114.369598
149.09787 82.437431
151.052368 45.212341
151.072357 21.852461
153.070282 72.111763
153.087006 51.753159
154.078629 24.733191
154.391388 13.24993
155.046616 23.00123
155.085159 346.640289
155.278152 10.42857
156.092392 153.070999
157.064301 106.150803
157.101471 877.267029
157.135834 27.54015
157.400833 20.0814
158.071533 52.098709
159.07991 798.025513
159.116592 271.132294
159.259552 14.68689
159.461655 10.61494
160.086273 73.751762
161.059235 218.434906
161.095306 1729.381958
161.151047 18.3533
161.195038 10.80172
161.300552 54.656349
161.385941 17.408819
162.105179 16.33333
162.127991 17.225121
162.165085 19.22773
162.210693 14.71786
162.469604 13.59007
163.074936 7731.170898
163.128647 68.423538
163.161682 22.16032
163.202026 22.920271
163.236542 17.054211
163.243118 15.70817
163.276291 12.62858
163.296326 10.71429
163.344818 27.365311
163.367004 23.26454
163.402008 28.703461
163.451889 15.55262
163.530563 13.26614
163.64679 21.20512
163.663345 10.79593
163.686859 10.93351
163.744858 16.238251
163.825546 12.65619
163.933914 28.993361
164.38356 12.78864
164.515259 13.02391
165.069122 204.180206
167.086182 55.51178
167.105179 40.833328
169.065186 120.655602
169.099762 465.158813
169.316086 16.10586
169.882538 10.67361
170.267853 19.730221
171.043747 22.98303
171.079636 965.75
171.117279 161.743698
172.128387 10.74381
172.226776 13.25929
173.056763 30.37608
173.096359 316.891388
174.058517 11.88053
175.070312 42.065731
175.077789 26.977961
175.111023 917.636108
177.066788 22.34206
177.089325 60.979221
178.082535 47.71413
179.063019 11.0805
179.084015 125.055702
179.105057 240.739594
180.091537 161.854004
181.100632 386.455811
181.908691 10.08298
181.984344 22.714199
183.067047 37.641159
183.081009 140.6035
183.117828 287.54361
183.923279 13.68298
184.125412 33.71228
185.095581 679.462402
185.130676 26.36471
185.142593 33.781311
185.293472 11.34612
185.569504 11.27083
187.073044 130.725906
187.109909 148.698395
189.0905 737.417419
189.123047 65.851883
192.093109 74.50663
193.085052 18.794121
193.100021 159.8349
193.119232 46.36058
193.939728 11.63947
194.071472 27.696819
194.10791 122.213501
195.079453 113.488403
195.116226 783.849792
195.316513 12.77174
196.087479 65.54097
197.095139 344.453796
197.131378 392.681396
197.306808 10.93923
197.379868 10.36694
197.47757 10.52381
198.061798 32.48333
198.102493 124.585197
198.160782 11.35091
199.074966 137.489502
199.111038 275.852295
199.148529 25.006821
201.091614 73.257271
201.126251 79.254547
202.039291 14.23184
203.081589 92.863312
203.105301 525.085327
204.614319 11.12287
205.090286 37.21698
205.122177 17.46273
205.774323 10.92684
206.110794 152.678894
207.076477 44.501629
207.115814 286.686798
208.087158 111.170197
209.094406 379.492188
209.132401 280.849609
209.706207 10.08068
211.044342 13.39815
211.110092 378.044312
211.147034 209.673492
211.673431 13.32634
213.091888 52.994919
213.125992 211.257294
213.163818 49.75032
214.097488 32.4156
215.105026 302.911285
217.086243 24.0194
217.120407 113.6446
218.104996 40.704769
219.078247 129.777695
219.116119 213.755096
219.172668 13.53988
220.122513 81.986603
220.322205 14.67262
221.094086 142.307999
221.114685 30.68791
221.127777 554.474121
221.370209 12.16835
222.104828 122.120399
223.110489 432.020203
223.147476 121.880203
225.091064 104.063301
225.126831 191.132095
225.39119 14.00221
227.101013 44.79715
227.112427 34.11985
227.139023 51.489151
228.160629 13.37674
229.079529 38.640919
229.100311 47.193981
229.1194 31.22683
229.153717 50.63681
229.165588 19.8046
230.106171 32.53582
231.115601 150.595306
231.132782 42.397419
232.093277 17.752081
232.12117 45.449692
233.019577 18.045139
233.095245 54.7174
233.132294 637.062988
233.251556 10.88922
234.1017 41.250702
235.110092 239.254105
236.157928 37.944611
236.814026 13.69338
237.09201 68.050529
237.127151 381.746399
237.157074 27.16692
239.105347 49.774052
239.142517 431.988098
239.179581 16.160749
239.386581 11.06921
240.109451 51.619251
240.897446 10.45857
241.12027 188.6315
242.109589 24.91338
243.09549 32.10545
243.1297 10.53112
243.171722 13.38095
244.122818 107.872101
245.076004 14.21239
245.101974 18.934959
245.129974 165.789505
246.095016 12.1867
247.110336 87.83316
247.146225 135.296707
248.120056 51.28624
249.086899 37.868721
249.126389 226.656296
249.163498 154.647202
251.081207 32.515148
251.110092 30.755939
251.142105 160.739105
251.875183 11.83687
252.107986 42.545792
253.120163 168.064499
253.158676 106.540497
254.103653 25.908159
254.168777 47.09164
255.096298 23.57268
255.138092 257.1586
257.095154 44.1264
257.151093 24.443439
258.102386 22.815121
259.109772 122.4897
259.148773 297.746887
260.116974 71.532333
261.123108 176.473206
263.105377 75.237534
263.141663 262.6203
263.349274 11.18382
264.147888 120.727402
265.118011 35.296719
265.156891 130.261597
265.499878 11.05104
267.135406 123.192101
267.170258 77.050262
268.118896 59.011341
269.11441 26.67592
269.129608 39.583328
269.15094 66.123978
271.114075 15.7413
271.135651 20.73876
271.171417 187.363205
272.11795 32.594688
273.128418 47.182129
275.107147 18.87417
275.143097 230.068298
275.505035 15.18269
276.120453 40.977081
277.158234 736.330688
277.269897 23.520269
277.405579 11.49439
279.136688 220.877808
281.117218 52.410461
281.157349 243.405502
281.706543 27.01087
283.164276 96.871979
285.119843 23.789141
285.140747 18.557541
286.098267 42.528301
286.133423 60.07655
287.152802 63.54752
289.154877 11.2872
289.17923 15.49671
290.121429 17.726191
291.131836 35.09729
291.173828 261.044708
291.325165 13.88828
292.136719 21.69858
293.152069 106.117798
293.17926 10.98162
295.130768 56.508751
295.169983 151.381195
296.131622 28.00362
297.106049 10.48735
297.148865 287.897491
299.105408 18.66786
299.126068 36.652111
299.176422 14.52894
300.166504 11.69147
301.125793 15.83446
301.155823 208.418701
303.136658 115.830704
305.15332 98.029457
309.140442 23.392719
309.182098 225.029007
310.153473 13.73159
311.120453 20.000179
311.161774 121.186897
313.17981 54.701721
314.124329 18.9403
317.341187 13.51766
319.168274 223.393402
320.515869 12.03191
321.150452 20.611151
322.155487 17.046169
323.161499 117.026001
327.196716 46.505852
329.150391 48.72604
329.171295 23.140091
335.153198 26.37269
337.15274 15.04138
337.18103 267.917297
337.275146 11.50189
342.174225 11.89946
343.148682 11.00568
347.160583 35.429489
355.192291 114.605003
357.167267 230.300095
365.166962 52.56776
365.191589 20.18968
370.205353 27.23587
379.188965 49.72699
397.196716 50.92112
