>compound Ramipril
>formula C23H32N2O5 
>ionization [M+H]+
>parentmass 417.239075
#inchi InChI=1S/C23H32N2O5/c1-3-30-23(29)18(13-12-16-8-5-4-6-9-16)24-15(2)21(26)25-19-11-7-10-17(19)14-20(25)22(27)28/h4-6,8-9,15,17-20,24H,3,7,10-14H2,1-2H3,(H,27,28)/t15-,17-,18-,19-,20-/m0/s1
#inchikey HDACQVRGBOVJII
#Ion_Source LC-ESI
#Instrument qTof
#Compound_Source Isolated
#PI Sirenas
#Data_Collector Ed Esquenazi 
#Scan -1
#Precursor_MZ 417.239
#ExactMass 0.0
#Charge 1
#CAS_Number N/A
#Pubmed_ID N/A
#Smiles N/A
#INCHI_AUX N/A
#Library_Class 3
#SpectrumID CCMSLIB00000004282
#IonMode Positive
#UpdateWorkflowName UPDATE-SINGLE-ANNOTATED-BRONZE
#LibraryQualityString Bronze
#TaskID d19310cd93df49b68e9fcbec27720eb5
##Scan# 11
#SpectrumFile Ramipril.mgf
#LibraryName fda_library.mgf
#MQScore -1
#Organism fda_library
#TIC_Query 0
#RT_Query -1
#MZErrorPPM -1
#SharedPeaks 0
#MassDiff 0
#LibMZ -1
#SpecMZ 417.239
#SpecCharge 0
#internalFilename spec-00000.mgf

>collision 10
102.055 799.862122
102.235535 7.802778
102.247749 7.468334
102.420128 3.463735
105.068886 99.802132
105.474876 7.748724
109.593491 9.500311
110.036377 19.18569
110.096199 507.843414
110.337608 10.1702
110.421768 5.513889
112.062614 33.819901
114.545746 13.3795
115.053528 155.237793
116.550629 8.054825
116.567642 24.87487
116.64119 6.833742
116.696892 12.34848
116.82885 4.969445
116.979439 16.50872
117.069763 4716.22998
117.115952 32.617569
117.177246 6.826993
117.229897 20.84206
117.251617 14.13252
117.280792 4.170833
117.292503 13.10684
117.314735 12.69162
117.358368 3.280092
117.401382 6.707992
117.420502 3.173611
117.43924 7.831156
117.469246 4.333896
117.554169 14.05857
117.573761 11.92754
117.594681 10.11111
117.797539 8.551042
118.075943 11.5003
118.231674 15.88333
118.299202 11.31779
119.085739 68.491333
129.069214 10.97646
129.381393 6.500409
129.502136 4.020833
129.531509 13.52976
129.683517 10.47348
130.060623 15.9037
130.085999 10244.860352
130.134552 53.05743
130.15123 26.120029
130.167038 14.37592
130.182388 50.710751
130.199326 7.198412
130.216675 6.945076
130.23764 3.926697
130.247818 17.712839
130.257462 17.853331
130.270813 30.915211
130.30603 29.191231
130.31958 25.209089
130.33139 34.916061
130.365845 9.3
130.391266 21.47121
130.430588 8.21007
130.443756 12.17361
130.45192 6.190104
130.466965 14.44293
130.506561 16.69278
130.537872 17.83869
130.55986 20.939489
130.641235 29.77606
130.993073 4.374167
131.086548 96.632294
131.198898 9.214881
131.343658 9.347222
131.831757 5.647059
131.962631 16.89295
132.358459 10.14081
133.477295 10.96757
133.535553 6.446509
133.570709 6.302083
133.799164 11.67143
134.096329 4571.061035
134.145233 28.800631
134.222153 9.173612
134.237961 7.510629
134.249512 14.30722
134.278091 27.56184
134.290543 6.847826
134.308243 4.440834
134.343048 5.602134
134.396042 11.65432
134.444138 9.397059
134.467819 8.502259
134.584839 7.072917
134.734528 12.41987
134.743134 8.729167
134.887695 7.833333
138.089996 123.293701
138.421722 7.805555
138.669464 7.653986
142.758896 28.700121
143.086838 29.1
144.04834 8.669102
144.081818 184.279007
145.06485 17.168209
149.136154 21.86166
154.088882 16.17226
155.2052 18.51042
155.250336 12.64904
155.262131 15.22748
155.28067 7.315476
155.308197 11.33515
155.318756 7.823253
155.361099 22.863199
155.375763 22.216921
155.474167 12.34157
155.534866 13.11204
155.963699 6.3
155.974335 9.126666
156.069717 42.041649
156.101761 9307.71875
156.153824 132.995697
156.165146 20.7672
156.19162 5.670139
156.214523 15.22165
156.228683 5.54327
156.246582 13.85006
156.277756 24.287331
156.299088 11.78974
156.315094 16.01515
156.338562 24.820021
156.356323 16.647921
156.444824 20.45417
156.461533 13.27917
156.481201 9.541667
156.510452 12.5
156.533691 18.014799
156.541809 3.888889
156.569275 27.14867
156.584702 16.051359
156.599014 18.365351
156.675064 10.01335
156.733521 10.50037
156.742691 10.2192
156.757797 10.62689
157.654617 7.629808
158.345779 4.855511
158.6203 8.061484
158.818817 12.05447
159.15564 6.33908
159.216003 8.107142
159.239044 6.762236
159.287323 3.190104
159.311737 8.405357
159.344421 7.558333
159.405441 2.033333
159.477493 14.27083
159.493347 14.34659
159.62442 12.24671
159.669556 3.169271
159.87085 11.46909
159.893906 7.718112
160.087906 7.01103
160.111862 9695.819336
160.166046 29.790171
160.183212 57.045719
160.209564 36.917431
160.232773 5.184627
160.244034 4.241071
160.2565 11.40224
160.302856 23.556311
160.329971 13.48487
160.351685 23.015829
160.367493 24.131701
160.387634 20.70974
160.40451 5.005682
160.435486 7.2
160.455353 9.083333
160.46817 22.79298
160.489441 6.86095
160.580658 17.38069
160.648788 31.030581
160.790039 6.127451
160.906158 5.538462
160.921753 18.25231
161.054306 12.04573
161.278671 42.500099
161.94873 4.433333
162.127258 453.845886
162.207275 6.028812
162.229141 7.725291
162.699402 9.084504
166.086899 35.424191
166.117508 16.78223
170.093826 14.46601
178.992355 16.077101
182.116791 41.946609
183.253983 5.428442
184.093506 104.012398
188.105743 91.674156
190.432602 3.667262
190.92009 18.293699
192.926727 20.72192
192.98558 3.802778
206.117844 447.163788
206.152649 295.443207
206.885117 15.64975
208.131638 33.989029
208.308792 12.84815
210.111801 32.24955
212.940933 4.479167
218.208588 9.870833
220.83609 9.614583
222.656403 6.541667
226.152145 19.60817
226.833878 4.280093
227.135803 22.956711
230.798477 10.39583
232.104614 11.8787
232.527893 7.692073
232.540726 6.887821
232.594437 7.4375
232.637268 15.25531
232.670837 51.431019
232.697006 42.6017
232.716125 68.51606
232.732986 74.154556
232.747849 108.294601
232.771744 286.760895
232.802658 342.818695
232.825073 3.016667
232.845428 166.929001
232.876465 188.165802
232.894531 68.665863
232.912964 244.667206
232.941254 267.665985
232.952927 62.959221
232.975479 163.904099
233.000198 114.661598
233.017273 131.580902
233.038696 30.70643
233.050995 149.802597
233.070511 69.186783
233.087204 8.921875
233.103882 74.934891
233.150818 110.608101
233.181122 67.366386
233.221924 91.246933
233.263474 48.730679
233.294128 30.239019
233.328659 42.53175
233.37146 12.60227
233.419937 23.078699
233.434525 9.039142
233.473129 13.3336
233.489258 14.861
233.52713 24.94665
233.557053 36.148941
233.624664 34.438759
233.657074 29.228439
233.697006 45.38728
233.988785 12.00536
234.097214 90.805939
234.149536 207449.203125
234.36702 5.748547
234.388321 6.171027
234.462585 13.39394
234.48996 10.02049
234.532272 19.16621
234.596481 101.922897
234.608932 146.352402
234.636597 126.647499
234.672729 229.631699
234.699463 28.65494
234.715988 16.17709
234.82962 147.898407
234.860001 172.479996
234.952728 21.062389
234.995102 8.755952
235.024094 36.611752
235.067001 5.960127
235.082932 64.476593
235.237579 12.62366
235.274765 37.141178
235.344559 27.113819
235.379318 64.604958
235.419403 63.134251
235.452972 33.23864
235.471634 20.644039
235.50174 29.052219
235.524567 22.966169
235.567627 36.46859
235.624924 25.6905
235.662613 8.651351
235.702332 19.056641
235.728577 48.56826
235.768539 51.664959
235.968033 37.906239
235.987427 29.397869
236.053833 9.856482
236.11528 23.814199
236.138535 3.336806
236.185364 9.901153
236.264816 10.64828
236.306625 7.106771
236.363373 30.851299
236.40274 17.19504
236.52861 30.32793
236.65802 16.5744
236.74614 20.44491
236.882553 7.108871
237.075012 25.86562
237.182144 8.500947
237.229691 40.06881
237.251343 13.52766
237.290115 21.931589
237.305389 4.500563
237.351593 11.46002
237.39801 20.72039
237.438934 10.6749
237.472534 9.612969
237.620621 3.75
237.997223 7.17444
238.659256 8.595239
238.78157 15.09677
239.477142 8.474359
240.230042 6.185957
242.07193 4.667298
253.12674 3.609069
262.144196 20.90028
270.744202 13.04095
272.162933 184.499695
272.234375 11.167
273.113342 7.292929
274.577179 43.02446
280.155182 112.617798
280.481995 7.997248
281.198303 8.670343
293.24292 5.336111
297.197144 38.555241
321.49939 2.265931
325.187897 63.627041
340.635468 8.126985
340.929138 7.814859
340.998535 11.84759
341.026337 13.03859
341.08429 46.48867
341.114746 7.120192
341.141876 18.06023
341.165527 13.66705
341.191559 13.1875
341.213409 66.031311
341.245361 6.823253
341.268158 38.405708
341.329712 29.158051
341.391449 24.398069
341.42923 19.390779
341.460693 59.496761
341.520538 14.0
342.053986 16.62668
342.183472 7.190217
342.252838 8.296474
342.375122 11.16667
342.497162 3.984543
342.625793 3.694257
343.132111 221.303406
343.202209 23069.130859
343.331238 3.861824
343.384369 25.15659
343.401154 17.066071
343.443665 7.442345
343.465637 57.190281
343.546936 33.67004
343.594818 65.200089
343.699768 21.665979
343.743896 17.86552
343.777527 26.782209
343.814789 53.168739
343.868164 30.961439
343.88446 47.6171
343.922455 36.69701
343.946228 15.5
343.991547 22.346689
344.019928 50.81868
344.057587 38.633308
344.27066 3.5
344.297302 15.43361
344.652405 15.52466
344.974365 8.177696
345.078522 12.45387
345.099457 7.846688
345.273102 12.50298
345.542633 3.176471
345.840912 10.8625
347.479736 4.36397
348.809631 3.537809
353.171051 13.90179
355.24054 31.160851
356.664398 2.780092
357.755768 42.806
371.194275 24.24194
387.184845 10.66002
389.206512 15.7905
399.226837 85.828194
409.997131 8.080808
414.356171 15.35494
414.450928 25.662769
414.493774 41.340179
414.545258 15.11414
414.575745 14.00264
414.60788 40.830551
414.656311 71.866096
414.715332 45.763401
414.749084 64.693733
414.794525 48.19997
414.822937 26.22736
414.865936 40.249149
414.930054 32.355228
414.962128 42.878929
415.076569 29.96314
415.126984 8.227544
415.396362 7.172619
415.524414 8.983949
415.69101 13.01109
416.219269 5.0
416.248047 10.24107
416.297333 6.720238
416.4039 24.656099
416.503204 4.166667
416.567413 7.388889
416.603149 6.472826
416.981781 35.095581
417.147064 154.412598
417.177979 10.5
417.239075 36367.570312
417.52002 19.282049
417.570648 16.999121
417.602631 48.85466
417.679474 16.3183
417.706055 16.279091
417.745819 21.775749
417.783508 27.843889
417.823242 9.260417
417.856903 20.318279
417.89743 22.988621
417.936188 82.330902
417.958588 10.29221
418.002594 107.8508
418.031738 36.591648
418.058533 24.86039
418.088806 40.722969
418.169708 68.17942
418.323181 9.8825
418.343811 26.99436
418.483795 23.55633
418.529724 48.046909
418.591278 33.340141
418.651764 14.3125
418.698761 20.451811
418.734833 14.44767
418.763733 39.929329
418.814514 28.70682
418.920715 11.18652
418.979462 34.04771
419.298126 6.284722
419.390747 9.867424
419.619385 17.804371
419.960876 4.84741
420.025696 3.942935
420.224731 2.7075
420.310455 11.0049
420.597534 7.37633
420.809662 11.66893
420.909607 5.352594
424.346161 13.3795
430.860809 4.409274
431.437134 11.24351
450.954498 7.366421
480.74588 14.72454
712.189514 34.682571
723.741577 10.97963
828.529114 11.74754
854.441223 5.020833
892.409607 5.121212
965.92334 23.10907
1517.454468 13.88911
