>compound MLS000877038-01!2-(4,5-dihydroxy-2-methylphenyl)-6-hydroxy-4-methoxybenzoic acid
>formula C15H14O6
>ionization [M+H]+
>parentmass 291.087
#inchi InChI=1S/C15H14O6/c1-7-3-11(16)12(17)6-9(7)10-4-8(21-2)5-13(18)14(10)15(19)20/h3-6,16-18H,1-2H3,(H,19,20)
#inchikey ADPBTBPPIIKLEH
#Ion_Source LC-ESI
#Instrument qTof
#Compound_Source NIH Natural Product Library
#PI Dorrestein
#Data_Collector VVP/LMS
#Scan -1
#Precursor_MZ 291.087
#ExactMass 290.079
#Charge 1
#CAS_Number N/A
#Pubmed_ID N/A
#Smiles COc1cc(O)c(C(=O)O)c(c1)c2cc(O)c(O)cc2C
#INCHI_AUX N/A
#Library_Class 1
#SpectrumID CCMSLIB00000080309
#IonMode Positive
#UpdateWorkflowName UPDATE-SINGLE-ANNOTATED-GOLD
#LibraryQualityString Gold
#TaskID b1d8e8f6646f4e71acdff9ca3d919d08
##Scan# 1809
#SpectrumFile p2-A07_GA7_01_17984.mzXML
#LibraryName NIH_Natural_Products_Library.mgf
#MQScore -1
#Organism NIH_Natural_Products_Library
#TIC_Query 0
#RT_Query -1
#MZErrorPPM -1
#SharedPeaks 0
#MassDiff 0
#LibMZ -1
#SpecMZ 291.087
#SpecCharge 0
#internalFilename spec-00000.mgf

>collision 10
95.161186 164.0
95.207787 124.0
96.443039 168.0
96.895081 156.0
97.187225 144.0
97.269653 248.0
97.881096 120.0
99.357567 152.0
100.387901 96.0
101.091087 140.0
101.640152 112.0
101.895149 124.0
102.524971 80.0
103.824905 160.0
104.239044 172.0
105.033058 48.0
106.053391 116.0
106.406235 172.0
107.068359 144.0
108.707748 160.0
108.780396 220.0
109.991913 140.0
110.94944 72.0
112.162987 160.0
112.420296 128.0
113.011963 216.0
113.037354 136.0
113.507622 180.0
114.204208 212.0
115.057457 272.0
116.058952 164.0
117.678101 148.0
117.732086 76.0
118.68206 60.0
120.034576 136.0
122.672188 124.0
122.954521 232.0
123.768028 64.0
125.316193 152.0
127.046173 132.0
128.063843 272.0
128.592545 72.0
128.800278 132.0
128.983307 56.0
129.068466 300.0
130.070602 188.0
131.048508 212.0
131.078125 160.0
132.050659 192.0
132.162766 152.0
133.582901 152.0
134.465408 184.0
135.974426 144.0
136.815872 100.0
136.962585 216.0
137.055771 200.0
137.809433 152.0
137.944977 144.0
138.047226 236.0
138.13205 140.0
139.055969 824.0
139.802612 64.0
139.866165 64.0
140.059235 352.0
140.231247 172.0
141.069794 556.0
141.11412 136.0
142.044067 232.0
142.070938 180.0
142.341522 52.0
143.048599 176.0
143.085403 172.0
144.053986 172.0
144.73082 36.0
145.027878 136.0
145.205307 172.0
145.459641 224.0
145.930511 188.0
147.053101 128.0
147.962006 132.0
148.211487 192.0
148.247833 140.0
148.76445 156.0
150.356339 200.0
151.004639 136.0
151.414948 40.0
152.061691 568.0
152.207047 48.0
152.273361 40.0
152.440414 32.0
153.072617 112.0
154.786362 124.0
155.054031 168.0
155.316727 112.0
155.790863 76.0
155.820663 248.0
155.97226 156.0
156.05632 776.0
156.203522 148.0
157.065613 400.0
159.044144 128.0
159.077209 128.0
160.057831 220.0
160.986084 164.0
161.390121 36.0
162.0634 172.0
162.276306 196.0
162.646698 220.0
163.070877 112.0
163.386185 212.0
166.042755 476.0
166.990479 140.0
167.052216 344.0
168.05864 476.0
169.025955 208.0
169.062271 308.0
170.039825 188.0
170.070374 116.0
171.047791 160.0
171.07637 296.0
171.438416 36.0
171.727798 112.0
172.051376 180.0
172.082489 176.0
172.607895 168.0
173.060989 420.0
174.068573 544.0
175.068863 504.0
175.462006 232.0
176.761536 120.0
177.103058 156.0
177.686249 212.0
177.890594 220.0
178.004761 92.0
180.068695 172.0
181.065918 476.0
182.070679 88.0
182.378311 36.0
182.399811 228.0
182.666031 112.0
183.002426 132.0
183.041229 164.0
183.460449 124.0
183.546722 200.0
184.051529 3016.0
184.159332 72.0
184.429535 56.0
184.710739 64.0
184.816254 52.0
184.897034 112.0
184.986755 236.0
185.058365 988.0
185.179016 44.0
185.262985 68.0
186.041306 128.0
186.06424 148.0
186.28299 128.0
186.587372 96.0
187.041672 192.0
187.079788 144.0
187.861908 232.0
188.040817 240.0
189.046417 184.0
189.090332 340.0
189.179108 72.0
192.094788 124.0
192.693863 184.0
194.036865 128.0
194.96051 144.0
195.0439 148.0
196.047745 184.0
196.687332 144.0
197.019653 124.0
197.057724 496.0
197.201279 184.0
198.032562 152.0
198.06308 176.0
198.884644 164.0
199.046021 116.0
199.076263 5460.0
199.263763 36.0
199.356491 148.0
199.961136 232.0
200.056 380.0
200.076813 900.0
200.228607 68.0
201.060196 372.0
201.111099 176.0
201.62796 52.0
202.054214 140.0
202.083221 164.0
202.842209 128.0
203.071808 140.0
203.259125 68.0
203.398193 36.0
203.79863 72.0
204.072098 168.0
204.421356 52.0
209.063126 176.0
210.062927 120.0
210.417892 100.0
211.041458 180.0
212.046417 1232.0
212.507568 184.0
212.928482 172.0
213.052368 996.0
213.204483 88.0
213.317825 52.0
213.422501 72.0
213.922913 104.0
214.059006 188.0
214.785461 156.0
215.033798 240.0
215.073227 180.0
215.462723 144.0
216.043823 208.0
217.084152 920.0
217.13414 68.0
218.082672 260.0
219.065292 196.0
219.12265 204.0
219.982422 204.0
221.037552 136.0
221.95285 164.0
223.041214 148.0
224.176376 176.0
225.053345 136.0
225.543304 80.0
226.06398 212.0
226.204376 148.0
226.95636 88.0
227.071808 4112.0
227.259308 140.0
227.586472 40.0
227.784683 32.0
228.038452 236.0
228.075912 536.0
228.151306 52.0
228.262558 212.0
228.406921 52.0
228.545303 44.0
228.807159 36.0
229.044373 140.0
229.09111 152.0
229.72934 152.0
230.058685 1092.0
230.10054 56.0
230.351196 232.0
230.719254 76.0
231.064087 424.0
231.309784 96.0
232.066757 288.0
232.455429 52.0
233.415344 112.0
233.752991 104.0
235.03891 192.0
237.050995 128.0
240.029694 184.0
240.29805 112.0
240.59433 96.0
240.844452 44.0
241.051132 436.0
241.444061 100.0
241.487366 80.0
242.058441 376.0
243.031479 236.0
243.060745 128.0
243.07486 180.0
243.120087 40.0
244.082001 160.0
245.080704 384.0
246.07991 496.0
246.748978 76.0
254.081039 188.0
255.065781 2932.0
255.125885 184.0
255.779068 60.0
256.065979 460.0
256.134644 88.0
256.389526 56.0
256.708344 100.0
257.065613 488.0
257.164551 68.0
257.611603 36.0
258.052551 452.0
259.052887 304.0
260.070831 172.0
260.983185 108.0
268.170135 64.0
269.919983 144.0
272.098877 52.0
272.617859 120.0
272.726318 196.0
273.079987 912.0
274.077209 332.0
275.080505 172.0
276.724579 84.0
294.028229 80.0
319.003998 132.0
371.353271 92.0
391.738708 132.0
423.051544 84.0
443.801331 108.0
470.074554 76.0
503.272766 72.0
569.565613 52.0
703.260315 52.0
705.177551 40.0
739.13855 20.0
751.467224 92.0
922.270203 80.0
923.134766 84.0
978.859436 60.0
1031.027588 260.0
1061.860107 256.0
1099.55249 56.0
1107.585693 240.0
1148.649414 160.0
1227.32959 264.0
1245.588623 196.0
1249.630859 172.0
1267.57959 116.0
1278.963989 200.0
1279.704346 184.0
1321.137329 180.0
1366.664307 140.0
1376.859131 52.0
1383.395264 120.0
1405.282104 184.0
1406.095459 200.0
1413.276733 188.0
1423.200562 164.0
1424.574951 156.0
1443.863159 72.0
1445.527344 160.0
1456.406494 104.0
1458.526489 284.0
1462.481689 108.0
1468.41687 152.0
1474.952637 172.0
1478.639282 132.0
1485.734741 132.0
1499.799194 120.0
1502.853027 128.0
1503.941162 204.0
