>compound MLS001074182-01!N,N'-DIACETYL-1,6-DIAMINOHEXANE
>formula C10H20N2O2
>ionization [M+H]+
>parentmass 201.161
#inchi InChI=1S/C10H20N2O2/c1-9(13)11-7-5-3-4-6-8-12-10(2)14/h3-8H2,1-2H3,(H,11,13)(H,12,14)
#inchikey BNQSTAOJRULKNX
#Ion_Source LC-ESI
#Instrument qTof
#Compound_Source NIH Pharmacologically Active Library
#PI Dorrestein
#Data_Collector VP/LMS
#Scan -1
#Precursor_MZ 201.161
#ExactMass 200.152
#Charge 1
#CAS_Number N/A
#Pubmed_ID N/A
#Smiles CC(=O)NCCCCCCNC(=O)C
#INCHI_AUX N/A
#Library_Class 1
#SpectrumID CCMSLIB00000085889
#IonMode Positive
#UpdateWorkflowName UPDATE-SINGLE-ANNOTATED-GOLD
#LibraryQualityString Gold
#TaskID d252d724072548979f1f6f1ced849daf
##Scan# 1168
#SpectrumFile p4-G07_GG7_01_18403.mzXML
#LibraryName Pharm_Active_Library.mgf
#MQScore -1
#Organism Pharm_Active_Library
#TIC_Query 0
#RT_Query -1
#MZErrorPPM -1
#SharedPeaks 0
#MassDiff 0
#LibMZ -1
#SpecMZ 201.161
#SpecCharge 0
#internalFilename spec-00000.mgf

>collision 10
45.804386 180.0
48.571453 116.0
49.926327 132.0
53.137936 188.0
54.297672 120.0
56.552872 156.0
56.684669 212.0
56.900665 124.0
60.260963 212.0
61.801888 128.0
62.958893 192.0
70.039619 152.0
73.189217 152.0
75.22438 140.0
75.729309 160.0
75.807274 244.0
77.941521 172.0
78.110306 108.0
83.253235 188.0
84.833405 124.0
85.376915 72.0
89.647957 132.0
90.374977 120.0
90.915054 160.0
92.629204 172.0
93.327805 140.0
93.391266 136.0
94.0271 204.0
96.938553 156.0
97.020882 144.0
97.089508 188.0
98.058792 148.0
98.094276 132.0
98.2994 164.0
99.11808 164.0
99.818817 124.0
99.99588 136.0
100.111626 6560.0
101.114845 544.0
101.582458 68.0
102.124825 164.0
102.741241 44.0
106.840515 148.0
110.270447 164.0
111.738373 132.0
117.137802 312.0
117.543068 68.0
118.136322 188.0
118.325531 168.0
118.921684 164.0
119.741386 56.0
122.979912 172.0
125.964363 144.0
139.952545 220.0
142.048309 216.0
142.120972 992.0
142.186539 72.0
142.920868 116.0
143.054138 172.0
143.131134 428.0
143.208923 108.0
143.669006 52.0
152.076508 152.0
159.148682 732.0
160.022354 64.0
160.154709 184.0
162.537415 68.0
167.039307 188.0
171.055603 184.0
191.279755 132.0
262.773712 56.0
363.721191 132.0
893.753113 168.0
962.18335 148.0
963.628601 200.0
988.35144 176.0
1005.886719 164.0
1011.525513 152.0
1047.936646 244.0
1068.467896 156.0
1117.195068 92.0
1118.539429 164.0
1139.982788 216.0
1172.672852 208.0
1182.159302 172.0
1197.276733 232.0
1211.4646 168.0
1235.41333 196.0
1243.605103 164.0
1260.366699 248.0
1261.165283 180.0
1268.548462 180.0
1283.835815 136.0
1305.082764 116.0
1305.276978 204.0
1310.661377 204.0
1311.692017 140.0
1313.956543 144.0
1361.183594 228.0
1392.638794 208.0
1398.356689 176.0
1431.907593 264.0
1433.338989 260.0
1443.688843 152.0
1462.885864 132.0
1469.150269 104.0
1478.403564 204.0
1485.652222 172.0
1491.227173 136.0
