>compound Levofloxacin
>formula C18H20FN3O4 
>ionization [M+H]+
>parentmass 362.1492
#inchi InChI=1S/C18H20FN3O4/c1-10-9-26-17-14-11(16(23)12(18(24)25)8-22(10)14)7-13(19)15(17)21-5-3-20(2)4-6-21/h7-8,10H,3-6,9H2,1-2H3,(H,24,25)/t10-/m0/s1
#inchikey GSDSWSVVBLHKDQ
#Ion_Source LC-ESI
#Instrument qTof
#Compound_Source Isolated
#PI Sirenas
#Data_Collector Ed Esquenazi 
#Scan -1
#Precursor_MZ 362.151
#ExactMass 0.0
#Charge 1
#CAS_Number N/A
#Pubmed_ID N/A
#Smiles N/A
#INCHI_AUX N/A
#Library_Class 3
#SpectrumID CCMSLIB00000005825
#IonMode Positive
#UpdateWorkflowName UPDATE-SINGLE-ANNOTATED-BRONZE
#LibraryQualityString Bronze
#TaskID d19310cd93df49b68e9fcbec27720eb5
##Scan# 3
#SpectrumFile Levofloxacin.mgf
#LibraryName fda_library.mgf
#MQScore -1
#Organism fda_library
#TIC_Query 0
#RT_Query -1
#MZErrorPPM -1
#SharedPeaks 0
#MassDiff 0
#LibMZ -1
#SpecMZ 362.151
#SpecCharge 0
#internalFilename spec-00000.mgf

>collision 10
102.032753 130.837402
103.627975 5.820313
103.819679 10.78533
104.012413 13.70125
104.050835 103.670601
105.033577 20.1875
105.055107 31.52232
105.651314 21.117359
106.028221 13.26471
108.048401 44.282051
109.028381 27.345591
109.045929 79.684937
109.666336 13.24321
110.03492 22.47547
116.048935 65.003937
116.456696 9.570495
116.64093 7.002315
117.056992 42.299999
117.227226 15.51078
117.410545 6.6875
121.584808 7.55125
122.039314 1062.869995
122.087151 8.017361
122.340988 7.5
122.352615 9.882966
122.387161 7.507601
123.026344 6.9375
124.016739 16.5107
126.036224 30.446791
126.0466 18.90844
127.049141 25.75189
128.05188 42.732021
129.043167 59.039101
129.052109 49.91106
130.028305 159.376495
130.066864 106.0037
130.487503 7.25329
131.032791 69.500153
131.065964 68.840042
132.044815 171.303497
135.026901 34.418751
135.056686 20.25758
136.053299 15.40341
137.001343 15.24493
137.055115 42.94595
137.841339 5.611111
138.033829 174.455002
138.109665 6.055707
138.585617 7.946791
140.048386 60.531979
141.05925 20.6129
142.065308 99.510696
142.436493 9.549396
143.060303 88.388947
144.04454 205.938202
144.066086 70.736183
145.037964 87.214317
145.073883 99.551651
146.058655 218.788193
147.052994 174.5952
147.352066 6.944556
148.013428 31.4863
148.054825 142.255997
148.15625 14.77042
149.051651 227.750305
149.169495 6.2625
149.34465 24.80625
149.382538 6.558867
149.450577 8.793478
150.034271 1497.432983
150.208527 8.025202
150.609924 19.48077
151.166306 8.400893
151.868393 6.639423
152.049866 111.243202
154.035492 32.32692
154.908005 11.94471
155.060165 77.515549
156.006531 39.016949
156.06604 142.718796
156.078918 115.878799
156.119888 6.752404
156.309402 14.53361
156.824554 8.591911
157.046951 68.789108
157.078339 61.984539
157.147141 9.568412
157.683777 6.445602
157.785385 8.834135
158.024109 607.578491
158.059753 152.275208
158.125793 8.552802
159.051575 54.293018
159.092026 13.63004
159.981522 5.941406
160.039261 233.385605
160.0522 290.089813
160.096054 9.001645
160.743942 9.581654
161.049423 149.435806
161.09024 10.69231
161.224762 12.50064
162.036484 44.913792
162.067398 112.333199
162.206985 9.950694
162.24678 6.75686
163.027161 122.591301
163.04213 230.525696
163.06366 67.401657
164.009872 12.15909
164.05249 452.736908
164.086823 14.02557
164.680161 6.3375
165.048279 233.822403
165.211441 8.980229
166.030212 29.50806
166.06633 18.01594
167.060242 100.729897
168.04303 50.720112
168.075027 21.625
169.043411 26.290911
169.07135 56.066219
170.025543 9.9
170.058472 140.1763
170.07872 44.27813
170.257233 9.270833
171.03421 76.690453
171.05455 904.791626
171.085403 57.78178
171.243652 9.102196
171.408707 20.48958
171.44899 22.03125
171.633972 15.13043
171.964081 15.00179
172.076202 145.130203
172.429169 21.13793
172.635025 8.821428
172.685638 10.26042
173.039124 61.505322
173.071167 239.980103
173.15683 8.545455
173.78566 9.173879
174.037628 38.03735
174.050674 11.07134
174.068558 109.0951
174.180099 33.883438
175.044312 93.110947
175.067017 138.080902
175.103287 6.846955
175.62323 18.827169
176.015533 21.8125
176.048874 327.768707
176.07222 118.896698
176.240875 6.363636
176.311752 13.67298
176.963989 10.33594
177.055756 214.400894
177.076355 120.258003
177.118057 21.230261
177.228607 8.001488
177.38942 7.520032
177.409195 7.528409
177.959641 10.34696
178.029556 1983.661987
178.099747 27.50424
178.193298 13.67818
178.210999 56.959499
178.251892 15.77679
178.302338 15.80789
178.328033 11.5875
178.341476 12.6725
178.479965 5.77694
178.540329 11.32717
178.568283 11.55644
178.635696 7.15625
178.661438 14.82031
178.837982 17.6348
178.911758 13.36851
179.037598 5858.828125
179.059082 17.11237
179.094055 66.754784
179.11467 24.582479
179.145264 9.272727
179.220169 46.787498
179.261932 10.50069
179.280075 24.27128
179.304398 14.71875
179.370483 13.41667
179.4431 7.752404
179.48175 14.25313
179.633942 15.06667
179.662064 29.547871
179.914322 6.75
180.009064 16.39481
180.069 23.633221
180.113235 28.41703
180.294373 9.796402
180.344101 19.01202
180.376572 9.020833
180.419907 17.889059
180.45163 14.22533
180.540146 6.263889
180.654297 19.012501
180.949387 8.6875
181.480911 7.125
181.62796 6.916667
181.898407 7.505682
182.062973 30.346371
182.093246 44.51754
183.055344 102.190903
183.089508 70.294456
183.535431 7.722322
184.033936 42.648029
184.067627 157.494003
185.04509 212.848007
185.072006 333.69809
185.102356 87.156807
185.13121 11.00047
185.279465 7.910156
185.301224 21.070419
185.353134 14.3101
185.410583 7.330452
185.484024 7.90625
185.753662 8.827206
186.093109 25.348101
187.029877 69.796989
187.056732 63.73201
187.08139 56.537109
187.095444 32.663681
187.277283 7.2
187.733002 9.59375
187.93924 11.03258
188.050705 1100.026001
188.192413 11.81174
188.254623 6.822917
188.435638 7.420139
188.507233 6.5
189.080475 48.012711
189.123901 9.773438
189.146729 8.005208
189.679276 6.269231
189.897995 7.112268
190.030106 148.738495
190.063599 322.458099
190.212265 7.370536
190.269058 7.253906
190.336639 13.1496
190.403458 5.758036
190.885208 27.827209
191.036743 431.585999
191.061432 658.947998
191.133804 19.01852
191.314209 6.625
191.340698 8.378811
191.417694 6.760417
191.444153 6.96875
191.774033 7.022321
191.97197 7.898026
192.044861 1049.764038
192.078125 71.267952
192.108063 12.56641
192.135666 10.69215
192.45874 6.25
192.618851 14.6392
192.641174 7.47962
192.715302 11.11539
192.796722 6.279605
192.908066 5.882353
193.015015 11.86539
193.040298 2765.727051
193.159256 14.7524
193.197861 8.252841
193.22258 10.48157
193.249542 24.826559
193.298889 8.324405
193.454239 7.523674
193.503235 9.81125
193.737701 12.23157
193.9095 11.64516
193.943253 6.330592
193.964111 12.18198
194.008667 7.46875
194.053879 993.480225
194.063965 9.789263
194.107529 16.0
194.180725 7.518168
194.239578 19.02083
194.290131 15.22059
194.351074 6.111607
194.39299 15.71003
194.488617 17.950701
194.51355 13.64063
194.530518 6.695602
194.650421 8.96875
194.950546 15.7526
195.021042 17.751419
195.055923 617.053528
195.084747 63.679241
195.113419 9.285714
195.224854 14.54151
195.345932 6.534028
195.574539 7.54375
195.670685 11.7
195.696182 6.150893
196.036987 43.433418
196.07254 171.374298
196.20752 6.5625
196.61705 12.27009
196.778351 8.128125
197.050262 59.833519
197.075409 119.097298
197.098831 90.842293
197.857864 13.26136
197.91188 12.5251
197.980453 14.77841
198.054916 163.369293
198.078629 183.151001
198.331284 6.090278
198.568253 9.830358
198.637207 6.566406
198.730789 13.18182
198.897003 11.25208
199.004822 8.521739
199.050125 2496.196045
199.087631 258.390198
199.160843 7.752083
199.199814 14.33613
199.244049 17.3151
199.330902 6.380208
199.360352 15.88004
199.437668 6.008929
199.691315 15.27174
199.989365 6.944712
200.017044 9.334028
200.346832 9.505984
200.657166 10.50781
200.779053 5.8125
201.063004 685.427979
201.312561 6.392045
201.352844 11.68084
201.415848 18.53289
201.945435 6.878811
202.064438 986.873596
202.128464 37.000179
202.222443 10.53009
202.269379 7.84375
202.374603 21.31522
202.604858 23.113211
202.75058 15.0
203.034729 580.084717
203.06076 705.029175
203.099747 40.949291
203.118805 1.503472
203.412903 12.67593
203.461044 14.75053
203.535507 7.25
203.614929 8.577168
203.680069 12.83266
203.813538 10.01758
203.838486 15.00272
203.864914 6.30125
203.906708 10.01042
203.961319 41.71674
204.045059 961.40802
204.067703 523.331482
204.139725 13.08449
204.156479 6.204167
204.190308 11.80625
204.247742 19.555611
204.345551 11.10714
204.394089 9.380208
204.445816 11.0
204.505142 25.23134
204.544266 8.450694
204.604172 16.81859
204.648544 19.26281
204.708664 17.46463
204.739944 13.11207
204.798126 8.210029
204.823364 29.264009
204.928558 7.750947
205.012863 73.813202
205.040436 5965.089844
205.076324 5171.978027
205.158371 73.159439
205.195602 17.75
205.231567 35.973381
205.261963 19.07692
205.301987 28.71875
205.320633 23.320311
205.369339 26.368059
205.398987 31.71961
205.43306 34.15514
205.477005 27.030451
205.606354 32.302078
205.684433 15.13315
205.713394 50.019112
205.750854 15.67361
205.788879 7.389423
205.850952 27.50149
206.054108 492.390808
206.1745 19.01042
206.296753 12.4163
206.319931 14.01389
206.384735 6.841856
206.794418 13.26042
206.829376 10.07102
206.8797 5.777778
207.020844 15.57414
207.055862 440.135406
207.151581 23.62752
207.200073 6.291331
207.335205 12.59602
207.822189 9.055921
208.075897 16.89967
208.172424 8.03125
208.368225 7.253906
209.066833 10.27889
210.044815 45.90089
210.066116 51.0298
211.014069 14.63322
211.045273 26.080191
211.068893 19.847349
211.083862 129.770996
211.297775 14.5431
212.055939 134.607498
212.11702 21.305559
212.336044 26.643511
213.034561 26.27948
213.064377 422.962311
213.09845 151.508896
213.161102 7.5625
213.374512 10.77595
213.435715 8.730229
213.476257 9.895833
213.766739 7.722322
214.063843 179.269302
214.083435 123.610298
215.019287 7.578948
215.062424 281.533997
215.095856 159.504593
215.131332 11.75069
215.248688 7.795455
215.63176 12.9082
215.728745 5.770032
215.758652 8.066406
216.045624 179.111099
216.075317 200.102295
216.19397 2.751838
216.393463 9.068412
216.869675 6.354167
217.040405 627.33783
217.076859 348.096405
217.166977 6.864583
217.207458 7.510417
217.233612 9.570313
217.285797 16.301029
217.39241 11.06174
217.681305 7.423611
217.752716 14.10208
217.793045 13.65089
217.854156 21.77083
217.87262 12.47533
217.942337 17.060101
217.967133 11.7796
218.022446 88.877777
218.055191 1000.612976
218.096848 143.484894
218.1465 16.233919
218.214462 27.02199
218.233948 9.5
218.275162 7.742457
218.311325 9.773674
218.369186 7.914402
218.427994 7.252083
218.764297 10.771
218.932587 11.47232
218.980499 11.95161
219.022324 85.846367
219.057251 11090.490234
219.242859 28.389151
219.261353 39.583691
219.288971 52.46331
219.354111 64.550377
219.378601 25.223379
219.420929 33.750401
219.453796 49.785351
219.484329 39.577572
219.503967 73.051659
219.578964 50.986
219.634827 11.77344
219.680405 28.59642
219.758942 25.29911
219.770386 23.75103
219.798294 69.165092
219.826355 4.0
219.864532 15.61736
219.896515 40.488022
219.927307 33.059662
220.136612 34.683552
220.175888 21.92042
220.213104 20.410231
220.325424 30.57612
220.515732 32.534969
220.53952 20.371771
220.61026 6.258523
220.656021 37.39056
220.6987 16.074141
220.734436 12.63089
220.784836 10.5
220.84285 13.5
220.872253 9.199013
220.962814 18.590019
220.981842 12.52679
221.072189 16464.119141
221.101517 5.514802
221.30838 2.260417
221.348541 31.022341
221.374069 24.45311
221.392944 43.31699
221.436996 30.216169
221.475693 25.434139
221.504028 46.544399
221.541763 47.37344
221.563431 44.030449
221.595139 14.56975
221.634995 12.52902
221.691193 46.35387
221.718155 11.86378
221.76001 16.28125
221.808777 19.633221
221.836838 17.87348
222.125305 13.11161
222.246704 6.414402
222.281891 8.515625
222.417297 6.0375
222.553207 23.433821
222.811783 8.774457
222.829224 10.00089
222.879654 6.423077
223.26799 9.8125
223.425308 6.541331
223.502975 11.25
223.513382 10.02003
223.773331 14.37121
224.064713 38.281891
224.087631 63.78125
224.114685 24.26042
224.342728 13.23471
224.481827 6.540179
225.026566 90.620117
225.069138 107.824501
225.088745 31.63287
225.100296 173.000504
225.201691 7.510417
225.358337 6.264706
226.070541 396.7854
226.095505 195.011703
226.207397 13.80625
226.326035 6.3375
226.429016 8.472656
226.463242 16.389111
227.00119 10.26087
227.042603 16.28561
227.071823 197.146698
227.104752 119.989899
227.258102 3.001488
227.47908 15.66495
227.727722 7.15625
227.845688 6.880388
228.075531 80.9645
228.1091 87.283821
228.534302 8.814904
228.73494 7.140625
228.941284 6.111607
229.052399 60.06485
229.080154 232.450302
229.099197 7.389205
229.192017 16.25511
229.434494 7.258036
229.513641 6.361607
229.719391 9.690104
229.762802 25.502399
230.054581 63.454121
230.102493 27.111191
230.135712 29.562401
230.295639 6.230769
230.685089 7.231571
230.81189 10.77083
230.859467 9.25
231.018326 261.133911
231.055664 974.777283
231.092133 463.113403
231.194427 14.25116
231.229645 7.3125
231.246521 9.0
231.282547 5.836805
231.332962 28.0
231.372665 14.08658
231.391418 10.57143
231.430679 11.3772
231.50029 6.307693
231.640579 7.577168
231.717545 11.64063
231.895981 10.79138
231.97084 15.00676
232.070679 2825.384033
232.242874 10.64026
232.371033 8.8125
232.653625 18.360121
232.70076 6.270833
232.973907 7.072917
233.038498 45.724201
233.149155 12.91331
233.217651 6.816406
233.248352 9.235577
233.283005 14.6413
233.345306 34.636429
233.393143 53.082878
233.418808 18.08403
233.464722 10.95511
233.504623 11.75064
233.6353 31.214781
233.668671 11.57049
233.705933 18.148439
233.762741 8.80125
233.797104 6.150893
233.94162 11.67014
234.082855 732.965698
234.158081 8.785714
234.254791 14.25408
234.319 5.777778
234.435867 8.944712
234.493851 8.872466
234.77356 30.0564
234.953964 13.55645
235.05661 25.704861
235.090378 257.130096
235.317215 15.94531
235.373398 7.5625
235.465134 11.94121
235.53952 8.262228
236.582077 6.500893
236.91394 6.752717
236.979706 8.621324
237.12648 45.451389
238.062729 12.03125
238.093521 61.619999
238.132019 51.83239
238.334747 9.5025
238.678986 13.80625
239.038895 50.290138
239.064682 17.6642
239.110779 103.590202
239.798157 8.284483
240.086838 152.745193
240.112976 283.567413
240.180801 6.757212
240.364151 8.255114
240.434647 11.99232
241.096207 2093.091064
241.184433 8.222222
241.256866 16.805799
241.290939 9.250893
241.386551 6.30125
241.422897 6.061422
241.534912 15.73988
241.735291 13.28333
241.791611 6.230769
241.843628 6.4375
241.979797 10.44048
242.132187 58.919971
242.175949 17.03409
243.014099 17.266069
243.052628 17.26923
243.49173 6.5025
243.736084 8.692154
243.768631 7.150893
243.843857 19.39805
243.858459 12.96307
243.985977 6.021115
244.016434 13.97681
244.056198 40.559341
244.07666 1923.785034
244.267929 9.941406
244.428711 7.78556
244.790985 10.11851
244.966583 24.169201
245.03389 26.632971
245.107254 44.327271
245.150345 15.37656
245.211166 12.36736
245.275543 10.01594
245.319672 5.795956
245.357224 6.994088
245.409897 10.19531
245.433578 7.538462
245.52623 36.316898
245.552902 10.0625
245.627579 9.960227
245.672241 25.15625
245.735229 26.562149
245.820694 6.081653
245.847992 9.758036
246.000992 10.3892
246.078705 401.809113
246.383179 14.29
246.404678 10.28561
246.442795 9.102196
246.688721 8.087936
247.011124 10.35227
247.049408 36.05695
247.086929 3337.539062
247.156967 29.469299
247.207642 9.539263
247.304443 7.620066
247.322144 10.03125
247.344833 11.25051
247.36673 4.501359
247.39389 29.027821
247.421585 13.26042
247.443985 6.889423
247.470245 21.97118
247.52916 14.31641
247.587677 7.704167
247.624329 19.19422
247.641388 15.89349
247.735107 7.612268
247.771286 9.640625
247.79892 10.78125
247.830383 22.50532
247.853928 12.25057
247.936096 14.00375
247.992889 7.423491
248.067581 12.3125
248.785919 9.540865
248.950607 8.091911
249.048599 17.413309
249.488754 15.01612
251.63501 7.295956
251.664047 7.066667
251.874268 19.37981
251.930862 13.30057
252.045914 47.730019
252.075699 82.346046
252.183029 7.54
253.093597 645.172913
253.119492 738.037476
253.183884 7.950695
253.297623 11.50095
253.325012 13.56579
253.471863 8.250638
253.506195 8.061422
253.575241 9.46875
253.704315 12.5651
253.744385 20.17222
254.058823 109.491402
254.160889 6.375
254.274994 7.360054
254.670181 16.057871
254.758469 10.3776
254.991791 9.067935
255.058533 158.794495
255.071518 352.369812
255.102173 770.623596
255.270111 9.660038
255.44751 10.00069
255.592087 9.142858
255.631104 10.59265
256.262848 14.75284
256.733063 10.625
256.968079 7.622466
257.127197 46.30051
258.070404 118.060097
258.103241 36.11573
258.137085 30.663639
258.168243 5.787202
258.20163 11.25047
258.997864 23.614969
259.052124 123.190399
259.084534 449.172485
259.118958 57.576271
259.158447 9.78125
259.407654 32.039959
259.4263 6.11125
259.486816 63.177898
259.514587 23.975109
259.603455 62.544331
259.638977 115.180702
259.657379 31.25919
259.715302 36.517601
259.776825 83.770638
259.817993 19.903219
259.868958 64.190109
259.891479 12.23011
259.936584 18.25
259.963196 23.03002
260.020935 38.699471
260.110809 84.227913
260.182892 25.23539
260.202026 26.709261
260.245239 19.09985
260.316681 44.193748
260.452576 18.09375
260.540039 26.2584
260.560577 11.78403
260.651184 33.65144
260.905029 12.23157
260.957306 12.64474
260.981781 8.133152
261.058258 238.3004
261.103638 61933.300781
261.386597 7.501078
261.581482 120.699203
261.615326 79.636673
261.650085 37.1451
261.679962 49.934971
261.754242 91.961678
261.820648 107.2715
261.879547 48.602161
261.925751 15.06897
261.966187 57.857201
262.018402 47.621971
262.04895 45.97715
262.170959 50.475868
262.200653 16.289061
262.242462 8.479688
262.277771 29.72061
262.357178 16.367649
262.408051 15.34112
262.430664 20.58007
262.637451 17.910259
262.71756 13.58036
262.868164 18.56678
262.911835 16.490391
263.059723 2.757813
263.093567 9.28125
263.141205 42.305649
263.330475 10.16352
263.534943 23.69231
263.657928 31.287439
263.759857 7.504464
263.823639 37.608681
264.079468 54.668228
264.410004 5.766667
264.719879 17.86422
264.739227 9.670139
264.866058 10.48488
265.09613 39.074139
265.168671 7.266448
265.888947 16.92898
266.088318 52.881359
266.124969 106.162399
266.455475 10.67014
266.479431 9.516544
266.796936 7.000844
267.090057 157.183701
267.135193 125.543098
267.325531 9.035156
267.974457 10.65385
268.032043 7.75
268.072479 384.666687
268.106232 1440.417969
268.144257 631.593872
268.236511 7.571023
268.32312 19.670401
268.376099 18.00391
268.539124 15.07853
268.635803 9.753125
268.659546 8.586805
268.686005 5.97962
268.806946 6.090909
268.845856 14.38315
268.976837 6.22962
269.421417 8.255208
270.022858 7.318412
270.12262 527.517029
270.182892 6.512228
270.223022 7.625
270.478271 10.01042
270.617767 6.337285
271.557892 7.5625
271.694702 10.5415
271.906616 7.023674
271.935699 5.941406
272.052917 38.104172
272.082428 53.470051
272.308624 7.346955
272.750824 5.753125
272.944702 7.504464
273.064301 119.754204
273.101227 924.882507
273.223419 6.310096
273.361328 11.89509
273.446899 12.83104
273.538605 11.07018
273.647858 11.77778
273.688904 8.473684
273.782074 11.41024
273.88385 11.26132
273.984894 11.72533
274.71933 8.500665
275.083069 40.78825
275.11792 513.253723
275.22699 8.824142
275.346375 16.95924
275.527313 13.8989
275.596466 8.192154
275.683105 7.65625
276.266846 10.05057
277.576843 12.67593
280.136993 9.254464
280.259399 7.549633
281.073608 60.450661
281.121948 63.456921
282.084137 128.4841
282.122162 39.361111
283.133667 56.990551
283.370453 12.39375
284.101562 215.5056
284.297485 13.2964
285.425629 15.33471
285.654846 11.00893
286.062805 258.533813
286.133301 43.132721
286.843811 7.084028
287.08255 268.274994
287.125061 34.779999
287.239349 9.002976
287.317657 11.44141
287.456909 6.574405
287.693085 24.78879
287.76825 10.64375
288.114166 78.87281
288.152588 227.031204
288.911469 7.070043
289.097443 15.20455
289.139587 40.511318
293.09317 14.51817
294.082916 45.306789
294.121948 95.951508
294.550476 14.52885
295.103149 49.515442
296.101868 336.683685
296.137787 507.178589
296.266144 6.949013
296.522858 22.734859
297.008514 13.71094
297.082581 1.65625
297.531006 11.83414
298.051758 9.30625
298.154694 215.076508
299.266357 16.279779
299.338623 24.533461
299.387238 6.1
299.904358 10.00417
299.973267 15.57207
300.072174 13.09191
300.112152 102.890503
300.513458 14.71469
301.08606 1102.781982
301.121338 1454.171997
301.197174 30.114639
301.261993 15.29586
301.339874 15.07882
301.382996 25.449289
301.522308 50.793911
301.563843 26.884331
301.582947 8.8125
301.63205 11.83681
301.812988 9.375
306.829956 15.29883
314.092316 93.319023
314.130737 61.978642
314.297363 5.882353
314.526123 24.75
315.138733 59.620029
315.544434 8.803857
316.069946 9.014741
316.107147 468.421906
316.145172 933.199219
316.206299 12.20511
316.25 10.14063
316.2883 11.58414
316.347992 15.02083
316.395386 13.9525
316.447327 5.759073
316.52182 7.191406
316.592773 6.09375
316.774933 21.05769
316.980927 16.21335
317.078888 7.055555
317.8909 9.502233
317.990173 9.049632
318.088135 23.03406
318.159821 2696.643066
318.234802 10.96023
318.263184 7.750947
318.290924 7.092226
318.343994 43.78981
318.362091 17.02784
318.418274 11.75
318.462036 19.519609
318.495056 10.82143
318.537415 10.30625
318.555054 7.528935
318.629456 9.250496
318.658142 7.310662
318.687286 6.945313
318.741241 12.5
318.802582 11.09375
318.902924 10.9712
318.994415 8.40625
319.02713 13.32237
319.120453 27.61006
319.225586 11.03125
319.390839 10.81818
319.890747 16.36161
321.448792 9.3025
321.514618 12.05125
322.828674 6.125
324.133789 280.620697
324.482269 6.446429
325.327515 7.259698
326.174927 11.9375
326.244263 6.021115
329.114014 70.235291
329.286346 8.653846
342.000946 9.75
342.028442 24.086161
342.251923 7.525202
342.290527 6.082237
342.773438 9.000762
343.150146 2.916667
343.577942 6.025568
344.104736 61.116329
344.140015 2875.238037
344.240997 7.004464
344.282257 10.5
344.354034 12.98023
344.392395 6.566406
344.435699 21.45833
344.484528 26.516609
344.552551 13.77595
344.708405 7.301658
344.804993 9.970274
344.888153 24.097521
344.915436 12.35355
344.954468 8.097222
345.024963 7.55625
345.084686 26.25139
345.201355 6.142857
345.736084 8.516666
347.057739 7.566406
362.1492 59.186211
446.3992 65.25
534.784424 6.754464
598.661499 11.40889
619.355774 34.87674
1670.416382 61.433472
