>compound MLS000876836-01!4,9-dimethoxyfuro[3,2-g]chromen-7-one
>formula C13H10O5
>ionization [M+H]+
>parentmass 247.05835
#inchi InChI=1S/C13H10O5/c1-15-10-7-3-4-9(14)18-12(7)13(16-2)11-8(10)5-6-17-11/h3-6H,1-2H3
#inchikey DFMAXQKDIGCMTL
#Ion_Source LC-ESI
#Instrument qTof
#Compound_Source NIH Natural Product Library
#PI Dorrestein
#Data_Collector VVP/LMS
#Scan -1
#Precursor_MZ 247.061
#ExactMass 246.053
#Charge 1
#CAS_Number N/A
#Pubmed_ID N/A
#Smiles COc1c2ccoc2c(OC)c3oc(=O)ccc13
#INCHI_AUX N/A
#Library_Class 1
#SpectrumID CCMSLIB00000079555
#IonMode Positive
#UpdateWorkflowName UPDATE-SINGLE-ANNOTATED-GOLD
#LibraryQualityString Gold
#TaskID b1d8e8f6646f4e71acdff9ca3d919d08
##Scan# 2039
#SpectrumFile p1-B08_GB8_01_17892.mzXML
#LibraryName NIH_Natural_Products_Library.mgf
#MQScore -1
#Organism NIH_Natural_Products_Library
#TIC_Query 0
#RT_Query -1
#MZErrorPPM -1
#SharedPeaks 0
#MassDiff 0
#LibMZ -1
#SpecMZ 247.061
#SpecCharge 0
#internalFilename spec-00000.mgf

>collision 10
95.015335 768.0
95.090164 40.0
96.827271 80.0
97.103607 160.0
99.733536 144.0
102.128914 160.0
103.14312 204.0
103.157272 132.0
103.517403 72.0
103.535629 84.0
103.559929 148.0
103.578163 68.0
104.717621 160.0
104.998741 132.0
105.032921 616.0
105.826454 156.0
106.004654 28.0
106.040527 164.0
108.399139 128.0
109.971352 184.0
110.096619 144.0
110.405907 152.0
111.632683 176.0
111.963074 108.0
112.99102 180.0
113.471771 116.0
115.505493 200.0
116.073029 128.0
116.285408 104.0
118.476189 168.0
120.021461 160.0
121.12072 120.0
122.372459 176.0
122.575096 176.0
127.893524 136.0
129.981705 136.0
130.30867 164.0
131.123291 184.0
132.022766 180.0
132.198914 140.0
132.595093 224.0
132.973511 72.0
133.029495 436.0
134.975403 156.0
135.232178 60.0
136.905411 156.0
137.864853 88.0
138.260071 208.0
138.970078 88.0
140.084412 80.0
143.016144 236.0
145.028625 260.0
145.062912 144.0
146.006516 136.0
147.04245 152.0
149.006241 132.0
150.218582 160.0
153.927048 140.0
154.218552 116.0
157.213715 208.0
157.333527 180.0
157.67572 188.0
158.035812 172.0
158.880112 128.0
160.068939 160.0
160.157074 172.0
160.272964 176.0
160.89592 168.0
161.02359 1724.0
161.057541 112.0
161.102997 32.0
161.375946 152.0
161.732635 116.0
162.0242 308.0
162.153076 108.0
162.827927 52.0
162.883789 124.0
162.960007 160.0
163.001617 1004.0
165.623291 140.0
167.12764 124.0
169.907639 120.0
171.008926 468.0
171.053635 160.0
172.360245 212.0
173.021942 196.0
174.026077 156.0
174.052338 128.0
175.034058 200.0
176.883804 104.0
179.029053 172.0
183.261322 100.0
184.851715 124.0
186.992889 204.0
188.017609 196.0
188.834473 184.0
189.018799 1692.0
190.02272 484.0
190.133072 188.0
190.465286 104.0
190.976517 80.0
191.032776 212.0
191.455399 144.0
192.536438 196.0
192.663498 40.0
192.967499 176.0
193.003448 176.0
194.574371 164.0
195.605713 232.0
197.796921 220.0
198.752579 184.0
199.013611 204.0
203.517105 136.0
204.042709 140.0
205.190033 168.0
205.572235 68.0
207.629105 96.0
209.929718 180.0
212.080658 100.0
213.575974 152.0
214.094025 164.0
214.367859 72.0
215.920914 224.0
216.040833 172.0
216.433014 104.0
216.94278 148.0
217.012222 10124.0
217.085373 120.0
217.2155 52.0
217.259491 84.0
217.303497 36.0
217.541214 44.0
217.670395 40.0
217.720322 108.0
217.764374 96.0
218.017059 1112.0
218.078735 264.0
218.587509 32.0
218.781754 108.0
219.018433 396.0
219.082138 84.0
219.123383 68.0
219.524246 36.0
219.683502 80.0
219.710052 80.0
223.094955 80.0
229.982742 32.0
230.123489 196.0
231.055847 140.0
232.036362 1248.0
233.036423 452.0
235.018723 300.0
235.507675 64.0
236.029297 192.0
239.236359 72.0
247.05835 188.0
247.576385 64.0
360.247528 20.0
413.203186 20.0
416.044067 100.0
509.20871 52.0
648.682861 76.0
730.552002 92.0
752.233643 112.0
772.19574 88.0
880.988586 84.0
1070.545654 164.0
1077.492188 176.0
1119.609619 60.0
1162.962036 108.0
1180.258789 128.0
1181.298218 56.0
1182.112427 144.0
1196.904907 188.0
1214.43042 192.0
1226.598389 152.0
1247.605957 168.0
1249.307739 184.0
1254.483643 132.0
1281.805664 148.0
1333.151123 212.0
1353.883667 136.0
1355.861694 216.0
1363.119263 184.0
1379.776611 184.0
1409.641235 216.0
1416.569214 224.0
1452.776123 20.0
1488.218872 156.0
1488.326416 92.0
1488.725708 68.0
1496.099243 84.0
