>compound MLS001333201-01!Carbadox6804-07-5
>formula C11H10N4O4
>ionization [M+H]+
>parentmass 263.07748125209054
#inchi InChI=1S/C11H10N4O4/c1-19-11(16)13-12-6-8-7-14(17)9-4-2-3-5-10(9)15(8)18/h2-7H,1H3,(H,13,16)
#inchikey OVGGLBAWFMIPPY
#Ion_Source LC-ESI
#Instrument qTof
#Compound_Source NIH Pharmacologically Active Library
#PI Dorrestein
#Data_Collector VP/LMS
#Scan -1
#Precursor_MZ 263.072
#ExactMass 262.07
#Charge 1
#CAS_Number N/A
#Pubmed_ID N/A
#Smiles COC(=O)NN=Cc1c[n+]([O-])c2ccccc2[n+]1[O-]
#INCHI_AUX N/A
#Library_Class 1
#SpectrumID CCMSLIB00000085363
#IonMode Positive
#UpdateWorkflowName UPDATE-SINGLE-ANNOTATED-GOLD
#LibraryQualityString Gold
#TaskID d252d724072548979f1f6f1ced849daf
##Scan# 1290
#SpectrumFile p3-H09_GH9_01_18314.mzXML
#LibraryName Pharm_Active_Library.mgf
#MQScore -1
#Organism Pharm_Active_Library
#TIC_Query 0
#RT_Query -1
#MZErrorPPM -1
#SharedPeaks 0
#MassDiff 0
#LibMZ -1
#SpecMZ 263.072
#SpecCharge 0
#internalFilename spec-00000.mgf

>collision 10
47.305828 156.0
48.209538 200.0
48.516834 224.0
50.740604 216.0
52.811497 176.0
53.10844 48.0
55.845158 156.0
56.729187 208.0
56.759174 220.0
57.526524 168.0
60.869305 180.0
61.542004 168.0
61.62635 104.0
64.255409 172.0
64.32563 184.0
66.53125 152.0
66.897041 284.0
66.918205 56.0
67.126778 160.0
67.497475 144.0
67.63163 64.0
67.967606 144.0
69.744728 156.0
70.217606 112.0
73.025482 176.0
74.564308 156.0
75.813858 216.0
77.089516 180.0
77.983353 152.0
79.466797 212.0
80.502808 144.0
81.788353 164.0
81.818962 176.0
82.641998 236.0
86.602112 192.0
87.078796 200.0
87.286942 44.0
89.0606 128.0
91.038025 172.0
91.591591 128.0
92.876137 196.0
93.187141 184.0
94.70929 160.0
97.526993 172.0
100.30027 160.0
100.605484 220.0
101.451736 196.0
101.943504 148.0
102.032951 512.0
102.091324 152.0
102.263283 144.0
102.283417 112.0
102.702545 172.0
102.83773 196.0
103.039886 632.0
103.122528 120.0
104.046455 604.0
104.087891 20.0
107.571732 144.0
112.925629 44.0
113.310905 220.0
113.355408 28.0
114.100441 232.0
114.253571 208.0
114.818054 172.0
115.042099 184.0
115.311249 116.0
116.037346 212.0
116.056236 224.0
116.114143 92.0
117.042526 352.0
117.061905 136.0
118.065422 180.0
120.019882 36.0
121.038162 136.0
122.983856 180.0
123.02359 152.0
123.112549 148.0
123.722198 116.0
124.143196 44.0
124.633781 168.0
125.265648 188.0
127.018227 192.0
128.047699 176.0
128.952454 60.0
129.00444 116.0
129.045502 4220.0
129.108444 28.0
129.620071 52.0
130.052048 1004.0
130.960495 84.0
131.01973 104.0
131.057251 612.0
131.090363 96.0
132.191086 200.0
133.064407 196.0
133.784012 160.0
134.224091 140.0
134.30481 172.0
135.030609 332.0
137.222244 52.0
138.336655 152.0
142.054352 440.0
143.047272 808.0
144.021683 136.0
144.048065 180.0
144.349106 112.0
145.040115 1156.0
146.042053 140.0
147.035004 168.0
147.054001 348.0
155.003281 124.0
155.045822 444.0
156.057526 212.0
156.182571 40.0
157.059479 184.0
159.055374 1308.0
159.118973 168.0
160.064453 152.0
161.078293 176.0
161.669937 76.0
162.052307 160.0
163.046249 212.0
164.057602 204.0
169.050995 136.0
170.074753 160.0
171.040497 1012.0
171.734833 188.0
172.052109 352.0
172.089752 152.0
173.061951 156.0
173.825211 68.0
174.069351 132.0
174.25322 176.0
175.047729 492.0
176.052338 208.0
177.059967 168.0
179.915833 136.0
183.065552 136.0
183.727737 60.0
184.075027 184.0
184.164154 112.0
185.088348 180.0
186.084183 172.0
187.062912 68.0
187.471466 88.0
188.045227 444.0
189.167648 164.0
195.021255 48.0
197.0457 1180.0
197.195328 60.0
197.231674 64.0
197.533676 64.0
198.049042 108.0
198.284088 56.0
198.934845 160.0
202.111191 172.0
203.054611 172.0
203.114182 112.0
205.016312 160.0
205.076172 96.0
215.056778 176.0
229.073898 1012.0
229.192917 64.0
229.220032 40.0
230.067581 176.0
231.973465 88.0
234.95076 168.0
244.933258 100.0
267.164917 152.0
268.36673 52.0
301.012665 104.0
366.0177 68.0
535.735168 64.0
747.897461 88.0
821.336426 40.0
823.082825 208.0
926.457275 164.0
936.864075 144.0
937.119995 72.0
945.877686 104.0
977.068237 20.0
1049.383911 284.0
1071.439941 80.0
1081.594727 192.0
1100.040405 256.0
1116.246826 68.0
1139.528564 152.0
1154.919312 144.0
1160.16748 184.0
1162.127563 52.0
1177.936157 40.0
1193.294556 204.0
1235.093384 184.0
1255.786377 84.0
1265.730103 88.0
1276.039917 188.0
1312.284302 168.0
1336.01123 80.0
1340.008301 160.0
1358.674072 124.0
1359.56189 72.0
1383.318237 144.0
1399.555542 156.0
1407.205688 248.0
1407.661133 136.0
1431.749512 52.0
1448.123901 244.0
1460.564575 164.0
1467.014648 108.0
1467.883789 40.0
1486.434448 172.0
1500.071167 196.0
