>compound Levonorgestrel
>formula C21H28O2 
>ionization [M+H]+
>parentmass 313.216644
#inchi InChI=1S/C21H28O2/c1-3-20-11-9-17-16-8-6-15(22)13-14(16)5-7-18(17)19(20)10-12-21(20,23)4-2/h2,13,16-19,23H,3,5-12H2,1H3/t16-,17+,18+,19-,20-,21-/m0/s1
#inchikey WWYNJERNGUHSAO
#Ion_Source LC-ESI
#Instrument qTof
#Compound_Source Isolated
#PI Sirenas
#Data_Collector Ed Esquenazi 
#Scan -1
#Precursor_MZ 313.217
#ExactMass 0.0
#Charge 1
#CAS_Number N/A
#Pubmed_ID N/A
#Smiles N/A
#INCHI_AUX N/A
#Library_Class 3
#SpectrumID CCMSLIB00000005176
#IonMode Positive
#UpdateWorkflowName UPDATE-SINGLE-ANNOTATED-BRONZE
#LibraryQualityString Bronze
#TaskID d19310cd93df49b68e9fcbec27720eb5
##Scan# 2
#SpectrumFile Levonorgestrel.mgf
#LibraryName fda_library.mgf
#MQScore -1
#Organism fda_library
#TIC_Query 0
#RT_Query -1
#MZErrorPPM -1
#SharedPeaks 0
#MassDiff 0
#LibMZ -1
#SpecMZ 313.217
#SpecCharge 0
#internalFilename spec-00000.mgf

>collision 10
103.05381 29.317499
105.070152 582.763916
107.048645 540.239624
107.085678 791.640686
108.526016 13.01126
108.566559 20.760611
108.719612 15.6746
109.064461 2987.197998
109.101616 422.560791
109.205528 10.37838
109.2658 20.017679
109.293152 18.25938
109.5429 11.94902
109.560577 21.62162
109.950523 10.69548
111.080727 88.879028
111.11676 38.031219
113.234245 10.56061
116.05957 18.366989
117.07016 298.308197
119.085503 755.694824
119.211647 16.693081
119.599571 12.98729
121.064392 232.130997
121.101326 392.929993
121.926758 14.67097
123.080208 821.664185
123.117249 326.394012
123.2658 15.49447
123.340675 10.90909
123.39901 12.17406
125.095879 218.081894
125.130096 34.816669
127.05394 12.83951
128.061615 29.099621
129.070724 416.369202
129.439087 24.280001
129.944382 11.85417
130.754883 11.5375
131.084961 818.192871
131.927048 10.16856
133.064117 183.211197
133.101242 981.142578
133.226089 11.02396
133.325562 11.0302
133.365784 11.78671
133.667709 10.32008
135.079895 961.652893
135.116837 335.162689
135.356506 11.01578
137.095551 168.649597
137.132584 249.829102
139.079346 13.63281
139.107971 31.185419
141.070007 76.276878
142.075058 34.166451
143.085175 495.418213
145.067017 41.890339
145.100708 760.418396
146.556931 16.307581
147.079453 233.6082
147.116287 432.939697
147.167908 10.56317
147.227737 17.621
148.185806 27.688009
149.076172 12.4
149.096252 638.955627
149.131607 190.960602
149.86055 10.50181
150.431793 17.208151
151.111313 121.853996
153.064697 24.21018
153.088715 13.5075
154.077728 21.53125
155.086685 331.735901
157.063385 72.873253
157.100906 807.033813
157.515015 15.57535
158.525391 13.00091
159.079193 222.327698
159.116943 1155.92395
159.494705 10.50243
159.62117 14.66118
160.19545 10.97682
160.480392 11.00872
161.096298 535.390015
161.1315 215.909302
163.110855 424.5354
163.14679 32.852341
163.85614 11.1361
165.126144 46.26646
166.078339 38.42979
167.085388 157.325302
169.101471 211.605194
171.081284 79.119072
171.116501 599.285828
171.299667 11.81215
173.095596 217.320099
173.131866 685.348572
173.176941 10.43361
173.345154 11.41157
173.368073 10.09973
175.111267 471.879303
175.147217 270.257812
176.586868 11.36824
177.126022 50.462448
178.079544 21.849119
179.085251 101.481003
179.101532 15.81294
180.713303 18.31373
180.9496 14.66533
181.100052 199.917603
182.070435 14.67014
182.105515 73.389977
183.115875 368.863007
183.265228 22.078581
183.306534 11.92905
183.585388 14.04167
184.083969 20.43548
184.125076 46.083809
184.231293 23.33651
185.095886 252.552704
185.131393 942.566589
186.069336 12.69944
187.110245 229.466202
187.147888 535.487183
189.126877 297.659698
189.158325 22.399349
191.141098 33.803219
192.09549 53.581291
192.226028 12.09184
193.099625 42.764439
193.149277 12.38935
195.115448 207.325897
195.829346 10.59375
196.080521 23.613131
196.9608 11.79693
197.101456 63.199139
197.13176 349.673615
197.364182 14.81016
197.902313 10.16461
198.102585 37.61446
199.11174 134.092804
199.14856 413.130005
199.377625 16.515921
201.125809 319.214996
201.162735 132.652603
201.281799 16.615
201.478928 10.95496
203.14241 122.758202
203.186172 43.403999
205.099442 17.238819
205.122299 20.87089
205.153336 12.0363
206.107437 39.66888
207.08168 31.90056
207.115112 263.752594
207.133926 54.537048
209.132217 248.660995
211.10968 15.87569
211.146652 83.963181
212.151077 80.647003
212.477631 10.44603
213.129242 141.057693
213.162201 160.481903
213.748291 10.22685
215.143753 135.194107
217.159332 50.942131
217.198837 21.654119
220.121536 25.171881
221.132996 248.178299
221.374954 10.27984
221.682892 10.96099
221.807144 13.82791
223.147446 285.760193
223.932281 11.01709
225.126404 183.717804
225.164078 346.431702
227.143585 142.602005
227.179214 774.85022
227.590622 12.00253
229.157074 47.828468
231.174286 47.202591
233.13382 31.847469
233.848862 10.96955
234.138199 22.590481
234.69342 13.26716
235.145432 286.946899
237.165054 380.574188
237.451904 14.16333
238.138901 18.119459
239.144241 160.056595
239.179016 169.166595
241.161636 119.212997
242.133881 21.46192
243.13855 22.528339
243.17601 100.447998
243.461731 24.508591
243.48204 11.08613
243.78653 13.00676
243.820145 18.04327
244.406616 16.08292
244.939682 14.20361
245.149384 16.6875
245.19043 2988.337891
245.293289 15.3726
245.332123 10.08391
245.380493 13.9803
245.653473 20.226589
245.700409 14.20777
245.726257 17.669241
245.76445 50.052589
246.078979 11.76397
247.141006 13.97057
247.15564 30.218349
248.153671 110.239799
249.162292 214.416702
251.142609 12.12626
251.178223 194.370193
252.158356 19.055559
252.9758 11.17868
253.156952 192.747101
253.195709 101.995903
253.480499 12.66698
255.173706 76.550468
265.1604 20.399429
266.170197 86.731422
266.738831 12.30993
267.175629 132.332703
267.208466 60.766609
275.171143 10.66865
277.195404 484.348602
280.180145 61.99968
285.183075 16.0732
292.703064 18.197281
295.205688 929.68927
295.250397 40.13195
295.273682 11.72049
298.192719 35.594929
311.6409 11.82141
313.165466 37.901932
313.216644 3330.146973
313.293121 17.03751
313.368134 13.41609
313.414948 17.86561
313.462097 10.18293
313.505798 25.71512
313.614624 16.57185
313.691467 24.058331
313.770782 15.03034
313.798828 13.23785
314.08905 10.71228
314.151154 14.79993
314.386658 14.1884
314.74469 17.07037
319.658325 10.74167
