>compound MLS002172454-01!SB 415286
>formula C16H10ClN3O5
>ionization [M+H]+
>parentmass 360.03817455209054
#inchi InChI=1S/C16H10ClN3O5/c17-10-7-8(5-6-12(10)21)18-14-13(15(22)19-16(14)23)9-3-1-2-4-11(9)20(24)25/h1-7,21H,(H2,18,19,22,23)
#inchikey PQCXVIPXISBFPN
#Ion_Source LC-ESI
#Instrument qTof
#Compound_Source NIH Pharmacologically Active Library
#PI Dorrestein
#Data_Collector VP/LMS
#Scan -1
#Precursor_MZ 360.03
#ExactMass 359.031
#Charge 1
#CAS_Number N/A
#Pubmed_ID N/A
#Smiles Oc1ccc(NC2=C(C(=O)NC2=O)c3ccccc3[N+](=O)[O-])cc1Cl
#INCHI_AUX N/A
#Library_Class 3
#SpectrumID CCMSLIB00000085367
#IonMode Positive
#UpdateWorkflowName UPDATE-SINGLE-ANNOTATED-BRONZE
#LibraryQualityString Bronze
#TaskID d252d724072548979f1f6f1ced849daf
##Scan# 1794
#SpectrumFile p3-H09_GH9_01_18314.mzXML
#LibraryName Pharm_Active_Library.mgf
#MQScore -1
#Organism Pharm_Active_Library
#TIC_Query 0
#RT_Query -1
#MZErrorPPM -1
#SharedPeaks 0
#MassDiff 0
#LibMZ -1
#SpecMZ 360.03
#SpecCharge 0
#internalFilename spec-00000.mgf

>collision 10
46.160137 168.0
46.570805 160.0
48.237179 148.0
48.514057 144.0
48.605602 88.0
49.01165 100.0
49.989117 136.0
51.091408 188.0
51.806679 56.0
54.482155 204.0
58.582039 104.0
59.125637 160.0
59.592072 124.0
60.728065 164.0
61.399986 176.0
63.498184 160.0
63.720428 188.0
65.004265 200.0
65.472092 124.0
66.980087 184.0
67.988937 180.0
69.377846 72.0
70.874603 164.0
75.315544 104.0
77.182152 164.0
77.621681 152.0
80.295776 180.0
84.267525 96.0
87.236732 228.0
87.556778 124.0
88.224808 204.0
88.256592 56.0
88.484863 160.0
90.033783 1472.0
90.191177 84.0
91.036201 188.0
92.049316 384.0
93.029648 196.0
93.90519 140.0
94.525345 128.0
95.08931 68.0
95.112602 160.0
95.479836 144.0
96.208603 60.0
97.837799 236.0
98.998154 788.0
99.025818 168.0
99.03846 196.0
100.703323 216.0
100.997261 580.0
101.953537 120.0
104.013954 220.0
104.976425 208.0
105.037338 272.0
105.174049 164.0
105.263885 200.0
105.437538 236.0
105.969589 200.0
106.02697 200.0
107.722466 120.0
108.045197 188.0
108.695587 136.0
108.886581 100.0
109.027855 140.0
109.054878 136.0
111.113953 176.0
111.521477 132.0
112.9785 200.0
114.815704 212.0
117.052536 164.0
118.028854 248.0
118.056763 116.0
118.344566 156.0
118.94944 212.0
118.968979 176.0
119.037819 448.0
120.042526 192.0
121.423851 212.0
122.472282 84.0
123.297478 156.0
123.593811 180.0
124.22747 120.0
124.262283 144.0
124.400566 204.0
126.996048 252.0
128.061188 160.0
128.88237 236.0
129.0112 184.0
129.178558 208.0
130.066864 128.0
132.351303 156.0
132.543716 192.0
133.033936 180.0
133.959015 164.0
134.394775 188.0
134.507858 96.0
136.038025 148.0
136.065887 180.0
136.863403 200.0
137.415817 124.0
138.734894 128.0
139.051575 136.0
139.528427 184.0
139.716583 172.0
139.989685 448.0
140.262924 44.0
140.347794 112.0
140.991226 136.0
141.429825 176.0
141.756668 96.0
141.980621 140.0
142.004715 352.0
143.015182 236.0
143.03447 112.0
143.911804 124.0
144.064667 228.0
145.004669 340.0
145.043411 188.0
145.141708 164.0
146.023071 4876.0
146.068771 76.0
146.095245 96.0
146.172241 64.0
146.415375 84.0
146.596069 80.0
146.977081 112.0
147.023331 192.0
147.897873 88.0
148.236938 44.0
149.198135 228.0
152.181366 132.0
152.820435 156.0
152.99025 144.0
153.056732 164.0
153.076431 204.0
153.660614 180.0
153.934601 252.0
153.980255 296.0
154.005234 3428.0
154.421463 40.0
155.003372 1036.0
155.050339 64.0
155.266037 48.0
155.72023 60.0
155.838699 64.0
156.001511 1292.0
157.003296 228.0
157.623596 100.0
157.883575 48.0
158.001144 104.0
158.046188 176.0
158.161316 72.0
159.036102 136.0
159.061218 168.0
161.038696 168.0
161.285477 76.0
163.543015 96.0
166.997299 176.0
168.003372 168.0
168.069016 144.0
168.996796 132.0
169.023758 332.0
169.916428 108.0
171.013062 244.0
172.021851 188.0
174.408249 112.0
177.054657 180.0
179.067108 232.0
180.084045 164.0
181.059814 328.0
182.067917 140.0
182.974884 140.0
183.400513 112.0
186.905029 44.0
187.160904 36.0
188.026047 192.0
189.019836 228.0
190.083069 136.0
191.014465 160.0
191.052979 148.0
192.077774 44.0
195.983749 168.0
197.041611 164.0
197.07515 132.0
197.973083 128.0
198.076721 152.0
202.109802 164.0
206.064957 184.0
207.053741 104.0
207.084808 144.0
208.064911 212.0
209.068985 168.0
212.10434 48.0
212.928375 192.0
214.039291 140.0
215.879196 20.0
216.012268 200.0
216.032745 160.0
216.062012 64.0
216.738358 156.0
216.852646 48.0
217.031479 156.0
219.985397 200.0
221.573532 168.0
222.053741 216.0
223.080704 132.0
224.074142 176.0
225.459747 204.0
230.025299 132.0
231.029114 116.0
231.852203 212.0
232.052277 88.0
234.042465 164.0
235.057526 108.0
235.08194 160.0
236.056442 112.0
236.079178 208.0
237.074066 148.0
237.164749 48.0
238.039124 168.0
238.060623 144.0
239.540054 92.0
241.027435 136.0
241.175507 148.0
242.030243 280.0
242.518875 56.0
243.036682 596.0
244.033798 236.0
245.026047 172.0
245.853012 208.0
246.052795 176.0
249.052856 184.0
250.081039 140.0
251.09285 212.0
253.305023 100.0
254.01828 140.0
255.026489 204.0
255.493683 216.0
255.590958 112.0
256.374329 120.0
257.002533 36.0
257.89035 64.0
258.023346 192.0
258.036194 116.0
258.045166 148.0
258.072083 128.0
258.482025 84.0
258.750885 36.0
259.016693 160.0
261.029053 156.0
263.45285 128.0
264.067017 148.0
265.067383 160.0
266.098877 76.0
267.025024 156.0
269.015228 352.0
270.023987 132.0
271.027374 440.0
272.030975 136.0
273.023285 132.0
274.762512 88.0
279.07489 120.0
285.044312 500.0
285.902496 152.0
286.050262 128.0
287.050903 116.0
287.935455 144.0
297.041107 220.0
298.019257 184.0
299.019989 84.0
303.098541 112.0
309.045929 116.0
310.201691 140.0
312.027252 156.0
312.122162 156.0
312.970184 180.0
314.03714 320.0
315.033447 140.0
315.056824 184.0
316.046875 232.0
317.039703 104.0
318.10379 68.0
326.054932 160.0
327.418488 132.0
342.049225 112.0
343.040161 160.0
344.194977 132.0
355.774811 56.0
357.150177 136.0
360.237457 128.0
511.079193 64.0
586.890564 92.0
670.429565 72.0
887.70459 88.0
896.437378 140.0
919.89563 72.0
925.863525 60.0
954.048889 212.0
961.150452 172.0
983.099854 48.0
996.110779 168.0
1000.374451 200.0
1002.339539 124.0
1029.670044 140.0
1054.076416 232.0
1099.360474 84.0
1131.091675 144.0
1134.581909 172.0
1158.967651 96.0
1164.163818 184.0
1189.982666 124.0
1209.555176 196.0
1249.706665 20.0
1258.771606 136.0
1260.721436 132.0
1264.214966 160.0
1276.900269 128.0
1292.173218 116.0
1292.230347 164.0
1305.428955 192.0
1331.424438 120.0
1347.515991 112.0
1352.057007 212.0
1368.154541 144.0
1375.55603 128.0
1379.789185 20.0
1383.266235 176.0
1397.277832 32.0
1402.624878 164.0
1406.167847 124.0
1416.958618 80.0
1419.987183 152.0
1426.377075 112.0
1429.47583 52.0
1431.35022 184.0
1443.960815 164.0
1445.224243 108.0
1456.755981 112.0
1482.975464 252.0
1490.050781 112.0
1492.364258 132.0
