>compound Ritonavir
>formula C37H48N6O5S2 
>ionization [M+H]+
>parentmass 721.321106
#inchi InChI=1S/C37H48N6O5S2/c1-24(2)33(42-36(46)43(5)20-29-22-49-35(40-29)25(3)4)34(45)39-28(16-26-12-8-6-9-13-26)18-32(44)31(17-27-14-10-7-11-15-27)41-37(47)48-21-30-19-38-23-50-30/h6-15,19,22-25,28,31-33,44H,16-18,20-21H2,1-5H3,(H,39,45)(H,41,47)(H,42,46)/t28-,31-,32-,33-/m0/s1
#inchikey NCDNCNXCDXHOMX
#Ion_Source LC-ESI
#Instrument qTof
#Compound_Source Isolated
#PI Sirenas
#Data_Collector Ed Esquenazi 
#Scan -1
#Precursor_MZ 721.322
#ExactMass 0.0
#Charge 1
#CAS_Number N/A
#Pubmed_ID N/A
#Smiles N/A
#INCHI_AUX N/A
#Library_Class 3
#SpectrumID CCMSLIB00000005594
#IonMode Positive
#UpdateWorkflowName UPDATE-SINGLE-ANNOTATED-BRONZE
#LibraryQualityString Bronze
#TaskID d19310cd93df49b68e9fcbec27720eb5
##Scan# 2
#SpectrumFile Ritonavir.mgf
#LibraryName fda_library.mgf
#MQScore -1
#Organism fda_library
#TIC_Query 0
#RT_Query -1
#MZErrorPPM -1
#SharedPeaks 0
#MassDiff 0
#LibMZ -1
#SpecMZ 721.322
#SpecCharge 0
#internalFilename spec-00000.mgf

>collision 10
105.06823 21.964821
112.667061 9.612969
116.015617 165.300903
116.1605 7.51875
116.837662 11.3704
117.068886 48.687901
120.080643 68.050301
125.11483 7.656472
131.084869 48.315601
132.078476 52.417049
134.098251 19.16703
134.157349 5.535202
134.537277 20.96386
139.278 9.841666
139.303131 11.67457
139.348083 9.000341
139.457306 9.227904
140.027664 8.633333
140.052994 3763.212891
140.103546 33.738731
140.121353 6.980072
140.154648 20.382339
140.191223 7.194331
140.272202 8.432017
140.30896 9.170834
140.323883 8.651895
140.368393 5.23852
140.39006 13.45337
140.434875 4.42803
140.455353 6.411765
140.479553 6.261824
140.544022 7.380952
140.687073 8.020833
141.124573 3.366263
141.380035 3.201868
143.081497 200.145401
143.666321 11.5824
145.488052 7.666667
146.05928 38.22794
146.09024 29.34548
146.09845 42.570259
148.181961 8.781983
149.105133 24.77899
149.115875 18.164101
153.06131 16.07254
155.08989 12.4288
158.09404 15.4375
159.081909 40.04285
164.067947 16.57576
167.08255 9.074112
168.000763 14.57212
168.216965 8.671952
168.853409 6.517857
168.975098 13.55933
169.078064 295.967285
169.324219 11.12586
169.940231 8.645833
170.006744 1.613426
170.0327 7.440476
170.049469 60.14238
170.094177 2.002315
170.119614 86.727783
170.157104 31.036659
170.177979 30.682461
170.19339 9.0
170.203232 1.350379
170.21254 16.334681
170.230133 18.622471
170.240967 20.81287
170.250809 9.487714
170.273239 19.455379
170.304749 49.575081
170.312347 13.00521
170.331009 12.34722
170.351654 16.948271
170.364166 8.867045
170.386795 19.728029
170.40683 11.68871
170.438705 19.463091
170.477982 14.62932
170.534637 25.22131
170.570038 10.25559
170.690506 12.6276
170.767853 10.92297
170.785812 33.443249
170.930878 12.72754
170.996567 6.615661
171.070892 78.516968
171.095306 36701.898438
171.198639 8.000278
171.212646 16.344049
171.265823 7.380208
171.347885 24.58573
171.366425 11.4596
171.397751 10.46127
171.457535 50.704399
171.470703 18.42502
171.498856 60.9319
171.509888 18.82239
171.527557 26.64887
171.538284 22.47718
171.556961 27.511629
171.594437 39.644009
171.612427 9.093775
171.621658 38.162441
171.6492 18.256559
171.668625 70.5299
171.681534 3.448718
171.691162 5.482456
171.710907 43.25272
171.739777 22.79118
171.748779 41.685921
171.800232 11.89239
171.811615 20.886459
171.823288 7.489552
171.880707 23.791849
171.927994 23.859119
171.978577 21.59285
172.224625 9.368421
172.276642 6.482254
172.530228 12.67421
172.610519 7.294872
172.632721 13.44183
172.68605 11.62142
172.868607 7.198412
172.987396 16.66279
173.047134 2.668056
173.065384 7.500563
173.161545 9.836957
173.261887 9.856019
173.587601 2.761364
173.683411 7.787879
173.972778 1.5
174.227432 9.085938
174.909988 8.242284
175.07103 8.338141
175.614777 6.482143
176.104538 50.786732
179.383789 21.307581
181.63443 10.05742
188.052841 8.375
195.011398 17.742861
195.901047 7.47405
196.500549 11.71109
196.520233 11.11404
196.578873 5.852083
196.645432 3.166667
196.880722 5.980801
196.94426 4.32353
197.003387 15.08437
197.07431 9094.813477
197.125961 11.76344
197.204727 14.44899
197.217316 10.51488
197.25206 22.91935
197.271439 13.19839
197.29982 40.976631
197.334015 11.45833
197.353348 13.8943
197.375061 34.7799
197.417694 15.83333
197.458008 22.50131
197.519684 39.673611
197.587814 13.60318
197.604492 9.706897
197.633133 7.333929
197.64621 8.945988
197.662842 10.18074
197.681595 16.176531
197.704926 38.38271
197.824265 13.52312
197.85675 8.966666
197.978851 10.65293
198.005112 8.343963
198.035217 7.033333
198.563553 9.167201
198.602707 8.1225
200.911499 4.588542
202.064468 9.370536
204.141296 27.703131
211.128204 51.541279
215.085327 30.24065
217.079453 101.048302
225.141434 35.09383
228.084015 27.495279
233.136673 34.226601
237.046387 31.082911
247.088303 5.000595
247.642273 17.660271
248.643127 7.908245
248.912262 7.001543
248.978668 13.50667
249.022049 9.007548
249.127869 43.141739
249.149948 22.04324
249.478195 14.69437
250.000198 10.59696
250.022202 4.3625
250.158585 731.485474
250.675858 13.04127
250.781921 14.5
251.338638 6.180021
253.101532 8.980392
253.213333 20.538639
256.109955 21.000669
259.087891 23.26206
264.931396 6.772727
266.15329 110.703598
266.348358 7.526709
266.460236 41.925949
266.476044 16.44907
266.49649 59.90712
266.533478 72.023003
266.560791 59.513939
266.588837 59.233879
266.63092 89.589607
266.673798 28.54167
266.694489 1.224537
266.71347 48.75066
266.728912 2.5
266.751648 5.340909
266.770081 3.463542
266.795197 90.538452
266.815796 38.497749
266.857117 23.450439
266.874176 10.98002
266.891479 21.730339
266.924561 80.512573
266.96167 16.805031
267.048126 16.130251
267.109711 5.669117
267.180298 69.368652
267.251892 11.67448
267.299896 21.27825
267.331299 12.02671
267.4021 16.82843
267.44577 11.82699
267.61087 27.170799
267.746552 23.35935
267.867615 12.44003
268.020264 8.622549
268.055756 18.685841
268.094696 835.711121
268.148499 56269.851562
268.231995 14.12821
268.298187 18.07906
268.350647 23.132681
268.392487 13.48972
268.4104 16.449039
268.509674 17.41
268.652313 97.826447
268.67569 18.334379
268.691681 97.196953
268.726349 37.251301
268.746796 55.854912
268.765747 53.087158
268.815125 66.810493
268.835938 74.430153
268.856903 17.897591
268.871216 25.316839
268.902252 70.917282
268.953064 22.32329
268.97644 15.9574
268.991974 8.326923
269.01825 45.753841
269.04538 60.980709
269.072083 27.042431
269.108032 58.020561
269.21759 26.933571
269.317474 2.645833
269.44043 2.027778
269.487152 31.67557
269.559143 22.45216
269.85849 15.6002
269.967926 9.941026
270.034515 24.280701
270.137421 5.522727
270.429047 6.356019
270.875336 16.67239
270.93634 18.72015
271.133484 7.839382
271.253571 6.564103
271.399445 14.48302
271.488342 6.234797
271.568726 0.916667
271.597717 7.347222
271.821045 3.184627
272.694855 9.245833
273.187836 6.340015
277.167908 26.79693
278.153625 126.161301
280.167236 12.27214
281.051788 2.0
285.174225 16.30225
285.197723 32.806198
288.837006 10.07614
289.103577 33.756569
291.075867 9.782586
291.683899 7.3416
292.134003 20.146669
292.242645 7.667969
293.463104 11.69652
293.716278 2.354167
294.071503 10.07455
294.11142 22.42708
294.147247 26.698721
294.182281 15.4575
294.223083 48.7985
294.244659 182.192001
294.282104 63.298382
294.29953 138.883804
294.359711 89.386299
294.378265 131.777206
294.409698 146.891907
294.425507 2.173611
294.461761 219.675705
294.476318 24.92561
294.5159 129.750198
294.557922 92.282463
294.579193 241.467606
294.608002 41.270248
294.633972 34.17944
294.664246 81.400047
294.702332 92.267647
294.810242 42.68288
294.82959 25.04307
294.929749 12.76716
294.948456 22.96508
295.17868 83.039017
295.358795 39.685509
295.533081 16.66898
295.627289 78.399071
295.741028 23.61775
295.774902 12.88377
295.81897 13.92684
295.8367 11.32292
295.889282 12.00025
295.911133 11.16698
295.969971 14.62349
296.027863 12.35826
296.058411 61.65786
296.143799 150766.0
296.434418 6.151389
296.53714 75.669113
296.593842 28.72558
296.649658 132.570908
296.674255 70.72184
296.7164 29.645821
296.741058 180.239899
296.768982 35.38229
296.803406 182.905701
296.830322 83.861969
296.853851 14.56065
296.875122 215.731903
296.919434 112.898499
296.9422 34.370659
296.970337 72.03051
296.996948 136.133102
297.059204 41.33173
297.073761 8.119048
297.106323 64.614227
297.218536 96.816261
297.254089 10.61905
297.338043 36.159851
297.477783 18.781719
297.549072 58.414452
297.587677 65.020409
297.700531 14.86454
297.788177 69.039368
297.944214 44.762321
298.067139 26.327459
298.200012 49.87122
298.251556 18.738689
298.376678 22.86838
298.400513 8.345597
298.418274 8.230681
298.460968 1.854167
298.683533 9.51929
298.717987 12.15
298.75119 17.64756
298.885803 9.221492
299.031708 2.511029
299.087463 17.0068
299.121948 8.833333
299.253662 45.116249
299.509003 7.707615
299.702698 14.98503
299.925598 9.314134
300.050293 8.126737
300.505676 11.59099
300.579803 2.740036
301.167328 13.40752
301.201355 7.556713
301.786133 36.020828
301.82959 2.509868
301.859924 4.844298
303.177429 7.401389
303.680511 6.566667
304.379517 7.322387
306.19696 7.686683
307.130188 7.922966
307.964355 9.19697
309.153046 10.32521
310.148621 15.35366
310.472931 17.503401
310.871521 17.290621
311.0495 2.381944
311.175629 670.774475
311.434998 8.395833
311.493042 7.854167
311.534424 4.602083
313.126862 9.848128
314.151031 21.34981
316.429016 9.551026
321.149872 21.67104
330.126038 44.163719
339.170258 100.142998
339.971283 14.16898
344.146912 12.55236
344.890656 8.970052
346.924774 7.905357
347.157013 305.082397
347.215881 26.161739
347.796997 8.854167
348.143494 16.852381
349.13913 26.82325
349.23175 6.692308
351.172546 22.03521
357.266296 4.469697
363.104004 3.402778
364.184753 16.253469
365.042694 10.01673
365.082153 6.172619
365.139801 22.450871
365.169342 403.420013
365.215118 1.002315
370.159576 22.60656
374.191711 8.000302
374.21875 11.16718
375.155579 56.265499
375.207092 120.358803
380.408722 15.2426
382.194977 902.545715
382.406006 8.671053
382.542084 7.796068
382.623718 6.574911
382.644287 2.942935
382.693054 8.483404
382.998352 16.85701
383.160828 6.547619
384.708923 9.031566
386.150757 6.355978
389.198608 8.921777
389.775116 7.502315
391.149475 22.212641
391.230499 7.928572
392.233154 174.004105
392.545898 6.407407
393.139679 130.680206
404.231781 30.84778
407.359344 9.479674
408.121613 24.05607
408.17038 504.894287
408.567902 7.425962
408.645233 14.20027
408.701538 7.843137
408.800323 4.714881
408.954773 7.843137
409.08844 7.553572
409.180634 31.183849
409.222504 19.505211
409.750092 3.420259
410.23526 22.660191
417.134979 2.345833
418.159637 20.269039
418.208527 14.91292
419.171204 15.2253
420.224854 12.36884
422.144958 15.50423
423.280792 9.076388
423.324036 4.170139
423.40387 4.184627
423.437286 50.783459
423.472504 43.555351
423.525726 41.124908
423.552032 1.59375
423.581879 12.74306
423.617554 10.525
423.664307 29.311541
423.702728 24.866871
423.733459 32.86964
423.765442 16.663651
423.806305 27.939289
423.836182 38.550209
423.914001 41.483559
424.097595 24.351
424.125946 99.198273
424.308716 36.686432
424.493927 7.620098
424.631744 9.339799
424.675568 35.668072
424.771179 12.26871
424.989197 20.58573
425.044647 16.32271
425.066254 9.055181
425.311432 60.158779
425.417786 6.205246
425.605194 10.88898
425.650696 6.524802
425.826111 3.368056
426.071014 21.281469
426.185394 33117.25
426.387787 5.411765
426.411957 10.12269
426.445099 7.440668
426.50058 5.677083
426.652344 6.690104
426.684509 7.0
426.720642 61.120419
426.754211 74.133347
426.777679 78.254143
426.803314 20.58964
426.840942 58.645309
426.875763 60.108898
426.90332 91.270088
426.943726 82.588608
426.9841 51.83379
427.033661 46.580601
427.096436 57.438919
427.136719 72.515533
427.290192 57.686211
427.426422 11.69039
427.514923 25.749821
427.681641 14.40278
428.399658 7.051282
428.62674 13.97663
428.681702 9.560877
428.919342 1.694445
429.049103 7.670494
429.157745 11.84167
429.987061 7.085227
432.442596 6.531839
433.956635 12.33514
434.146118 9.777778
436.164825 64.454613
436.222656 122.651604
436.743256 1.880208
438.83963 1.501389
440.121948 7.086926
444.21405 7.14938
448.224884 9.504762
455.182373 15.16667
462.223511 9.042735
463.253815 34.76355
471.220001 14.90635
472.203613 45.615299
488.259857 6.821047
489.231842 396.131012
489.679962 8.061769
490.21228 9.225962
495.199646 5.0
503.841064 9.670075
503.959381 12.91414
504.144653 11.75137
504.284424 11.39855
504.408112 8.007134
505.559906 14.55578
506.034912 8.0625
506.927124 4.231304
507.182495 30.976801
507.242462 2961.24707
507.332275 7.056327
507.459259 13.53472
507.485535 45.957909
507.558533 26.676451
507.640472 6.286859
507.724182 23.227329
507.763214 37.42506
507.86853 33.447971
508.092102 24.68681
508.118469 7.025961
508.339142 6.704545
508.451233 21.86923
509.014771 5.227904
531.515381 10.3954
533.123474 7.778241
533.222656 1257.641968
533.345581 2.345833
533.608154 23.612711
533.665405 9.485228
533.7005 12.76667
533.829834 3.9675
534.002747 12.72222
534.269958 2.715278
534.64978 13.31637
535.396301 7.333712
547.636597 9.682438
547.975525 8.929825
551.189087 24.147289
551.233826 1350.016968
551.351257 8.25
551.404541 17.93556
551.448853 8.170834
551.485901 11.83839
551.63324 8.694341
551.802429 7.631194
551.85498 13.26016
552.262329 3.016801
552.328735 8.412343
552.434937 7.020833
552.679504 9.001811
559.480164 6.857101
562.312683 25.057449
566.215393 9.955882
580.328247 23.26535
590.301086 19.09483
599.234741 14.77799
606.309265 173.260193
606.827515 10.67493
618.279419 13.22429
631.243164 15.00087
646.286743 5.167298
659.303467 33.075451
665.333679 8.176137
674.600525 3.185606
675.015808 19.440029
677.263245 8.252604
677.32959 829.34613
677.512451 11.81633
677.548218 7.412783
677.592957 16.3276
677.671509 8.551446
677.896484 8.962657
678.370667 9.099065
678.775024 19.76222
679.587952 8.070076
687.463684 3.891204
703.311584 644.822571
703.620422 8.469594
703.961914 7.000534
704.375854 10.18006
704.672791 8.16706
705.920288 8.641346
716.485046 24.36894
716.536194 26.650061
716.628479 37.751171
716.686218 29.597679
716.753418 66.502502
716.858704 35.005421
716.924927 22.134741
717.110901 1.510417
717.305603 16.095831
717.884705 1.1875
718.078186 9.040064
718.325439 2.893518
718.64679 39.048019
718.7146 7.534439
720.076782 4.763889
720.314453 1.008333
720.510742 7.774167
721.174072 31.04619
721.321106 10529.580078
721.41394 1.854167
721.523743 77.372887
721.578064 65.205971
721.629517 25.989401
721.728394 28.40716
721.774963 98.504128
721.814331 65.216721
721.909485 97.21109
721.979431 99.467377
722.108398 96.78746
722.208923 53.558941
722.687317 30.40818
722.883362 21.699051
723.042419 7.706667
723.142517 15.0526
724.303162 7.980801
724.38385 10.59195
724.424316 6.700379
724.555359 13.61618
726.140808 10.68673
726.335449 12.55579
726.56073 7.833818
727.526978 13.54598
727.80658 14.29414
731.112305 3.574405
803.288208 7.836742
844.020386 3.2075
853.42688 6.872784
890.397583 1.720238
974.442444 3.667175
1112.859863 11.21769
1450.499878 5.440025
1559.861694 12.13706
1586.736694 12.3375
