>compound CortisoneAcetate
>formula C23H30O6 
>ionization [M+H]+
>parentmass 403.212219
#inchi InChI=1S/C23H30O6/c1-13(24)29-12-19(27)23(28)9-7-17-16-5-4-14-10-15(25)6-8-21(14,2)20(16)18(26)11-22(17,23)3/h10,16-17,20,28H,4-9,11-12H2,1-3H3/t16-,17-,20+,21-,22-,23-/m0/s1
#inchikey ITRJWOMZKQRYTA
#Ion_Source LC-ESI
#Instrument qTof
#Compound_Source Isolated
#PI Sirenas
#Data_Collector Ed Esquenazi 
#Scan -1
#Precursor_MZ 403.212
#ExactMass 0.0
#Charge 1
#CAS_Number N/A
#Pubmed_ID N/A
#Smiles N/A
#INCHI_AUX N/A
#Library_Class 3
#SpectrumID CCMSLIB00000005351
#IonMode Positive
#UpdateWorkflowName UPDATE-SINGLE-ANNOTATED-BRONZE
#LibraryQualityString Bronze
#TaskID d19310cd93df49b68e9fcbec27720eb5
##Scan# 2
#SpectrumFile CortisoneAcetate.mgf
#LibraryName fda_library.mgf
#MQScore -1
#Organism fda_library
#TIC_Query 0
#RT_Query -1
#MZErrorPPM -1
#SharedPeaks 0
#MassDiff 0
#LibMZ -1
#SpecMZ 403.212
#SpecCharge 0
#internalFilename spec-00000.mgf

>collision 10
100.795464 13.53333
100.959686 7.55
101.023697 2151.591064
101.06649 16.624769
101.390091 12.53634
101.463699 10.86422
104.613533 22.796221
105.069504 715.238892
105.200714 11.66071
106.507896 16.005951
106.612038 9.010417
107.045898 82.651192
107.084816 258.343506
109.066185 137.3965
111.044525 23.4025
111.078346 187.3741
111.557442 12.51308
115.038849 54.558369
117.066093 129.263306
117.098862 4.03125
118.628532 10.61765
119.032249 134.5625
119.049652 82.009468
119.065697 5.0
119.085655 417.205292
119.292076 11.5625
119.425323 4.571429
119.844719 46.34803
120.405861 5.460227
120.43483 7.551136
120.574928 23.941179
120.756081 8.519397
121.065125 1666.334961
121.101044 452.734894
121.131081 7.509615
121.196121 32.5
121.257538 9.547348
121.303383 27.51515
121.33403 7.029605
121.358223 10.36012
121.387733 4.1
121.441353 7.0
121.488091 21.868059
121.549377 11.2225
122.263161 13.02381
122.409775 28.223221
123.080589 140.459396
123.315933 12.0375
123.505547 28.664471
123.521164 3.520833
123.574814 65.238403
123.673019 32.26667
123.825844 11.8025
125.058372 53.570419
125.363777 3.5
127.052834 14.44531
128.06311 18.39286
129.070312 69.608772
129.091492 8.503676
130.072983 60.911381
131.084641 279.7995
131.230759 24.00312
133.066498 129.595306
133.101501 160.735703
134.47937 7.6
134.543228 22.69141
135.080109 716.490479
135.115005 620.397583
135.151215 3.3125
135.234146 11.00694
135.27063 16.050301
135.296677 20.571119
135.315781 11.00298
135.364426 40.959999
135.387466 13.02083
135.604736 20.633329
135.685394 23.27273
136.564453 18.02471
137.057785 90.783699
137.09729 308.593811
137.305267 31.515471
137.383163 6.1
138.298828 10.78533
138.330368 15.00128
138.692917 17.265631
139.036285 45.907261
139.078094 171.132706
142.320877 6.020833
143.082809 191.787704
144.164734 15.5296
144.937759 9.846154
145.065964 37.70417
145.100067 1086.838989
145.250595 40.66692
145.282562 9.240131
145.444931 4.505682
145.691879 34.724739
146.651474 41.53093
147.054855 51.157612
147.080261 830.261414
147.115921 31.0
147.191299 7.041667
147.596725 11.76078
149.096375 139.905106
149.330444 11.08277
149.572861 5.5
150.416397 23.036341
151.073318 290.212311
151.10585 56.565762
151.11467 16.8225
152.94516 36.476349
153.090652 32.08366
153.374878 11.67361
153.616287 4.142045
153.931976 17.444639
155.08609 181.033493
156.373459 25.22727
157.062561 55.66898
157.098343 86.018379
157.242126 27.145161
157.272583 21.56061
157.331497 8.8125
159.07843 254.306702
159.117737 177.679794
159.290283 14.56005
159.321747 13.27083
159.360535 6.545455
159.803513 8.785714
160.403275 17.58036
161.057999 188.153702
161.096207 273.600494
161.12709 89.536346
161.68335 23.082239
162.023346 26.920059
162.177048 14.0625
162.197647 41.326809
162.236618 12.0744
162.248795 30.002979
162.264114 31.04018
162.307877 7.640625
162.316635 63.768509
162.334473 16.72024
162.376205 22.25625
162.387466 10.05787
162.400757 8.1225
162.431793 18.0
162.440247 4.0125
162.46727 13.27083
162.498306 6.5
162.619324 20.83112
162.636002 26.10096
162.808899 10.26078
163.002045 3.1875
163.031219 15.19444
163.076035 643.842102
163.111481 19250.060547
163.16391 91.516167
163.183487 34.339531
163.21225 87.65374
163.234955 11.0375
163.244705 64.302406
163.274048 18.96154
163.282593 39.92215
163.334137 18.88942
163.355591 31.735291
163.371338 18.25
163.381088 17.6098
163.412445 54.0742
163.435623 59.662689
163.461884 25.401991
163.493073 21.0625
163.522125 31.290529
163.542725 10.28125
163.554367 21.96314
163.602081 37.500832
163.613937 9.297794
163.638107 28.93083
163.688965 52.79554
163.780136 39.012501
163.801956 17.9125
163.820755 14.0125
163.867859 34.18042
163.902695 14.88095
164.050171 39.392502
164.587692 22.69829
164.745712 12.50417
165.087952 81.093231
165.129791 11.53811
165.292007 17.361111
165.380219 14.09879
165.645004 10.66667
165.872757 11.88281
167.075684 21.542009
167.084396 24.0194
167.638199 15.78547
168.404388 27.6875
169.085266 87.5
169.099304 86.287216
169.201111 13.88911
171.078888 294.356995
171.115723 477.721313
171.151779 4.004807
171.232529 15.39286
171.266418 5.889423
171.456848 7.145833
171.466965 24.555679
171.930939 16.511971
172.533585 22.76667
173.097168 481.993988
173.132553 115.153198
173.164429 6.008929
173.477005 34.537788
175.073486 184.926605
175.111298 199.294907
175.231812 13.5625
175.266998 20.091909
175.366226 7.142857
175.633179 23.24617
176.230759 23.15789
176.324097 14.00625
176.416504 16.58882
177.053284 35.756939
177.088058 96.773941
179.068939 223.011398
179.106812 73.056824
179.513351 14.14009
180.10376 37.780369
180.145401 16.33333
180.174469 70.039467
180.557587 5.0625
181.034714 4.525
181.06308 20.125
181.087158 686.973572
181.101349 387.767609
181.195435 21.280519
181.371918 13.44444
181.390625 6.125
181.424591 10.1875
181.797699 15.125
182.000214 2.580357
183.081253 238.097305
183.115631 328.557709
183.323151 4.5375
184.926437 11.5625
185.096085 499.542999
185.131866 54.325489
185.328766 16.501329
185.674667 11.63333
186.020096 2.6125
187.075806 137.545502
187.110733 200.643707
188.019043 24.50403
188.663574 6.55
188.854767 12.07853
189.090927 704.135071
189.127975 189.163193
189.246872 39.271759
189.328491 9.375
189.400772 18.194441
189.43129 3.9375
189.553177 14.6875
189.658844 25.086809
191.083969 54.220112
191.107788 129.154495
191.358597 2.5
191.661926 13.92105
192.105286 62.505569
193.100357 65.507393
193.11937 40.40625
195.115387 317.729309
197.095352 110.8396
197.132492 186.827393
197.162399 8.555555
197.201797 14.69444
197.577637 28.033251
197.895859 7.145833
198.259323 9.669642
198.302322 7.266448
198.345596 18.78009
198.919678 6.082237
199.077194 21.54044
199.107635 320.647095
199.146164 11.5125
199.396225 20.216351
199.774658 8.035714
200.151459 64.76992
201.00029 13.0625
201.090485 135.050995
201.296082 9.556818
202.023148 5.0
203.052429 41.234581
203.106812 84.797783
203.1427 262.566315
205.081573 66.431053
205.115112 116.239601
206.103073 28.510229
207.064667 69.7817
207.099884 363.538513
207.114517 155.656006
207.13829 12.72917
207.168335 2.5
207.278503 8.502717
207.418945 11.48491
207.534027 15.00152
208.237183 31.18531
208.356888 7.8125
209.092621 307.737701
209.130722 71.219498
209.86702 6.446429
210.048782 12.46154
211.112045 401.964386
211.151901 132.708893
211.276947 22.9375
211.507095 18.08036
212.043732 4.051136
213.08989 114.172897
213.128677 109.680603
213.163834 72.278023
213.841965 3.0625
213.87645 7.0025
214.472107 36.000881
215.099945 56.327381
215.139221 71.74749
215.175888 53.60117
215.303375 12.00189
215.431488 12.675
217.127441 129.442307
217.417023 16.944441
219.807632 10.75
219.860001 22.55625
219.916901 6.0
220.040741 7.5
221.101013 11.70417
221.1315 302.399292
221.147141 105.117599
221.177475 10.10227
221.327576 13.0
221.368652 5.508929
223.023621 5.6875
223.106003 119.600304
223.14798 174.018906
223.214783 11.10417
223.55867 11.69531
223.683533 5.0625
225.125717 617.500977
225.163284 135.110703
225.231506 8.010417
225.576355 22.569349
226.168442 68.41021
226.88472 20.48
227.064835 14.44676
227.10878 103.169502
227.142136 208.857697
228.902206 3.0625
229.123199 155.398102
229.157074 114.8853
230.120941 81.340279
231.135422 40.17474
231.800858 32.740131
233.127396 58.752579
235.128708 76.561241
235.146118 54.39447
235.388733 6.125
236.409348 4.142045
236.708939 15.91132
237.132736 135.711197
237.162033 296.096313
237.255188 9.5625
237.389679 14.7875
237.448181 45.764709
237.687424 20.22727
238.204529 12.15385
238.521805 7.347222
238.732086 5.833333
239.101547 68.652283
239.142715 850.812988
239.173401 266.541107
239.236618 5.513889
239.301193 11.03125
239.334473 5.889423
239.371155 15.15434
239.552185 7.704167
239.580154 8.5
239.785782 16.578529
240.157654 37.50079
240.270859 7.5
241.125534 299.625397
241.158493 171.407898
241.203232 6.555555
241.434662 6.581731
241.604752 9.240385
241.696594 10.61765
241.831818 4.083333
241.866989 6.3125
241.940033 8.501894
242.411285 12.03333
242.896805 18.612499
243.018066 16.207109
243.135406 173.067902
243.177536 93.502983
243.316437 10.5625
243.405304 14.0625
243.462967 19.57556
243.767044 13.56516
243.939468 50.388409
244.811356 10.51786
244.985657 7.898026
245.146423 218.153397
245.448639 28.68598
247.091721 79.514236
247.146149 503.62381
247.359604 2.5
247.474518 9.529411
248.114639 33.58036
248.217514 10.83333
248.302567 27.375
248.506699 10.5125
249.126968 110.515503
249.163315 141.469498
249.337753 8.390625
250.126099 65.450432
251.117584 51.6875
251.142014 95.027802
251.180496 137.255997
252.145218 44.724899
252.341599 18.02083
252.596268 5.785714
253.12088 100.910202
253.161346 328.45639
253.248734 3.5
253.79689 13.01389
255.095657 13.51607
255.136093 255.388794
255.172913 631.686279
255.724518 11.11539
256.598114 14.42105
257.153503 842.546387
257.190613 259.213501
257.312714 23.33112
257.42572 20.94643
257.440674 13.58266
257.524933 18.82143
257.747345 22.85714
258.037842 15.54006
258.859985 7.002315
259.137115 24.5
261.11026 33.370468
261.15625 508.153412
261.530823 20.736839
261.593018 6.082237
263.174683 117.719597
263.343536 9.4
263.633362 17.516069
263.776733 29.0
263.844177 12.80568
263.888031 17.0928
264.108276 66.587517
264.143219 34.73835
264.425232 28.00338
264.849701 5.555555
265.12262 167.943893
265.157654 1482.342041
265.291473 15.10332
265.355042 6.225
265.388031 9.9225
265.42749 23.75
265.540833 15.67361
265.563538 41.328651
265.60321 6.082237
265.689697 7.389423
265.882996 14.4375
266.035675 30.33424
266.312408 10.65341
266.511108 13.84028
267.085602 74.702843
267.139374 245.940201
267.175903 548.846619
267.278412 12.00833
267.32959 5.5125
267.394531 12.6875
267.429138 5.625
267.462921 20.06424
267.517334 8.265625
267.545776 12.0875
267.807617 8.545455
268.063904 13.44444
269.150726 179.820999
269.186646 18.82008
269.220764 11.19231
269.263947 44.859558
269.488373 10.72727
269.5354 4.503676
269.741058 16.50145
270.166382 87.32692
270.249847 12.90179
271.128326 27.251181
271.164612 43.36161
273.150269 133.997498
273.206848 2.5
277.149567 71.121323
277.584961 9.105603
277.677673 9.3025
278.414429 9.002155
279.135315 192.406296
279.17337 912.955627
279.221802 4.0625
279.528809 6.225
279.787659 8.680555
279.860046 16.039289
279.978882 26.165319
280.071289 26.05592
281.150299 305.851593
281.185486 79.543213
281.230957 14.66331
281.41217 6.797794
281.491852 4.840278
281.539764 4.173611
281.604553 11.71607
281.787048 11.9025
281.90271 5.03125
281.955292 25.941179
282.124359 8.653846
283.126404 43.88921
283.167511 2585.535889
283.253265 8.583334
283.33078 5.0625
283.433746 23.284599
283.473175 3.0625
283.569611 31.543131
283.75116 10.5
283.765808 14.5625
283.990082 16.16667
284.226013 6.5
284.337372 9.6125
285.143829 197.505402
285.185089 1339.270996
285.535553 21.728451
285.55423 16.78409
285.601074 31.950661
285.631104 5.833333
285.732391 6.5
285.810822 7.8375
286.01767 3.0
286.058868 15.50152
286.165741 20.66806
286.309479 18.111839
287.128174 98.112823
287.343018 11.1875
288.168243 29.7992
288.75415 5.071429
289.158203 794.736084
289.351532 19.69141
289.452118 11.15341
289.618286 7.538462
291.474426 21.03064
292.145477 17.107759
292.424835 6.204167
295.168915 575.200684
295.270233 62.222832
295.42511 25.011971
295.85965 20.61607
295.97525 13.1875
296.030823 30.444851
296.115234 7.142857
297.150665 209.854095
297.184631 942.8396
297.256165 3.223214
297.407562 10.03333
297.488556 2.8125
297.506897 16.69837
297.725616 14.02632
297.951233 27.001789
298.098206 16.14286
298.704865 7.541667
299.160614 773.786682
299.200134 62.380211
299.244934 20.640631
299.372314 11.68182
299.511169 23.903219
299.577332 12.20439
299.673676 3.6
299.858673 4.6875
300.089172 17.535721
300.108826 19.83523
301.17926 1974.342041
301.271759 3.520833
301.303223 16.673611
301.320038 10.03846
301.344177 9.508928
301.416656 5.5625
301.464966 8.5025
301.604401 17.22917
301.711182 7.5625
301.851227 23.533331
301.94339 10.25
301.961456 24.343201
302.01532 46.930771
302.185944 12.2025
302.262817 4.5
302.310883 16.006941
303.09201 5.529605
303.161987 303.273102
303.185516 180.621307
303.564606 13.04891
305.373566 9.59375
305.63681 20.023809
306.079285 19.693911
307.169159 2047.359009
307.297638 13.64205
307.427429 4.340278
307.533691 4.9
307.554626 21.875
307.611542 22.61607
307.980591 9.043269
308.025299 11.34375
308.170349 23.533091
308.433014 5.00329
311.323547 6.545455
311.39743 19.844999
311.526123 15.02381
313.178986 1357.427002
313.251526 9.806723
313.727753 5.642045
313.832977 11.64464
313.906891 5.051136
314.087799 5.960227
314.541321 28.35417
314.893921 7.102273
315.196167 400.287689
315.499176 27.63315
315.519409 38.48098
315.715515 3.525
316.676575 32.620331
317.21402 44.36607
321.180634 9.25
323.101715 5.591912
323.276855 8.067935
323.46521 20.118349
323.520844 19.59091
323.815704 22.75
323.915161 15.22473
324.214996 11.61539
324.334808 10.06618
324.428802 17.960461
325.049438 13.20439
325.086273 59.573059
325.120453 133.080994
325.179993 3606.666992
325.280396 11.34375
325.300415 10.86422
325.332153 78.386391
325.432709 17.89423
325.494904 11.54464
325.514709 9.704166
325.808807 10.70833
325.858368 32.078529
326.213959 30.98214
326.518768 11.54464
326.550323 11.95363
326.669647 15.05778
327.153992 12.54006
327.805573 2.6875
328.341827 9.265625
328.842804 19.52471
331.192841 301.470093
331.248932 6.508928
333.533813 9.035714
334.838989 10.01042
339.203735 56.28653
339.256317 11.95924
339.295654 12.5152
339.31488 14.51923
339.406738 16.640091
339.468964 9.9225
339.84848 10.78533
340.002441 10.78533
340.913422 21.19556
340.96167 46.787159
341.112457 30.021549
341.129883 55.666771
341.172852 912.180786
341.208252 61.517559
341.26297 24.90519
341.297943 9.586538
341.340057 54.00074
341.385925 20.52083
341.42981 15.78571
341.477905 20.079611
341.559296 16.72727
342.037598 20.648279
342.938782 8.5625
343.190765 13250.070312
343.27356 106.635902
343.331757 48.22506
343.381348 49.391842
343.413239 43.359669
343.435028 20.50123
343.462677 25.3125
343.485535 80.669182
343.524445 33.00161
343.562592 32.23341
343.601135 39.597061
343.638885 10.40909
343.665497 35.673908
343.713226 79.620193
343.735077 26.3225
343.793701 102.349503
343.81427 33.246712
343.853149 51.92112
343.899048 9.551136
343.924774 55.560162
343.96286 28.6875
344.041565 11.80287
344.086456 24.53397
344.120026 25.03064
344.234924 26.037809
344.332977 33.704479
345.32016 9.002016
345.688751 9.003676
345.99469 22.85022
346.294922 9.889423
347.348785 29.82258
347.618958 10.74395
347.98877 15.96023
348.072815 8.020833
349.176605 49.294189
349.307556 19.04348
353.186798 12.65625
354.400635 14.5
355.190247 12.5
359.186493 175.814301
359.247406 5.235577
359.781403 6.0
360.213409 18.382351
360.63974 15.92006
361.148285 14.01563
361.200806 2817.840088
361.280853 6.515625
361.346985 3.5
361.39328 8.0
361.452698 7.266448
361.48172 9.563636
361.521332 42.416302
361.63147 8.284091
361.737885 8.284091
361.763733 4.583333
361.87027 16.595591
361.896088 13.04464
362.041687 5.004807
362.125397 12.8
362.176575 37.11356
362.260315 11.95363
362.458679 10.05556
362.598236 38.460232
362.717285 13.98818
363.12146 14.0
365.122192 4.340278
365.180298 20.40843
367.18634 187.873795
367.896729 13.3
368.038239 7.529605
369.13446 7.0225
382.886658 7.045455
383.447144 9.740131
383.697296 11.95363
385.199921 1370.223999
385.317322 2.8125
385.354889 8.55388
385.537659 19.660721
385.609314 6.797794
385.634918 17.04006
385.703003 10.01786
385.819397 10.01042
387.059296 4.9
400.32547 11.9025
400.358582 4.142045
400.589966 24.671301
400.647919 49.254532
400.692688 35.522499
400.717468 22.3125
400.751801 53.714291
400.806549 32.958691
400.829742 126.885902
400.893311 57.204048
400.935913 17.944851
400.975983 10.05729
401.06958 9.002976
401.173401 18.32703
401.271912 54.436459
401.373413 14.94583
401.994232 14.89286
402.030853 8.015625
402.093628 15.71556
402.219208 13.69444
402.945129 20.76667
403.036407 25.4697
403.091827 26.001181
403.125641 52.12957
403.212219 24743.009766
403.339722 24.00341
403.367401 92.922974
403.400818 182.704803
403.424469 44.136478
403.476715 84.315857
403.509857 109.642899
403.575287 175.727005
403.62381 149.609894
403.679657 240.161606
403.709106 35.5
403.740662 93.609558
403.765778 94.143799
403.790588 35.000702
403.812531 11.53125
403.839752 24.012501
403.953705 113.821999
404.042542 58.191509
404.320221 34.405891
404.595581 45.894569
404.66153 10.10227
404.924408 23.88431
405.015625 4.041667
405.183075 21.95779
405.246521 9.909091
406.230499 4.375
406.276123 20.64286
406.381256 11.18382
406.722473 6.4
407.453979 4.580357
407.476074 6.722222
407.536682 7.081731
407.749939 13.5747
408.031006 10.5
408.748108 20.04195
409.827179 5.460227
1603.335327 20.509871
