>compound MLS000877019-01!methyl 2-(2,6-dihydroxy-4-methylbenzoyl)-3-hydroxy-5-methoxybenzoate
>formula C17H16O7
>ionization [M+H]+
>parentmass 333.097
#inchi InChI=1S/C17H16O7/c1-8-4-11(18)15(12(19)5-8)16(21)14-10(17(22)24-3)6-9(23-2)7-13(14)20/h4-7,18-20H,1-3H3
#inchikey XKIBNYJGNBTYMP
#Ion_Source LC-ESI
#Instrument qTof
#Compound_Source NIH Natural Product Library
#PI Dorrestein
#Data_Collector VVP/LMS
#Scan -1
#Precursor_MZ 333.097
#ExactMass 332.09
#Charge 1
#CAS_Number N/A
#Pubmed_ID N/A
#Smiles COC(=O)c1cc(OC)cc(O)c1C(=O)c2c(O)cc(C)cc2O
#INCHI_AUX N/A
#Library_Class 3
#SpectrumID CCMSLIB00000079577
#IonMode Positive
#UpdateWorkflowName UPDATE-SINGLE-ANNOTATED-BRONZE
#LibraryQualityString Bronze
#TaskID b1d8e8f6646f4e71acdff9ca3d919d08
##Scan# 1611
#SpectrumFile p1-D08_GD8_01_17916.mzXML
#LibraryName NIH_Natural_Products_Library.mgf
#MQScore -1
#Organism NIH_Natural_Products_Library
#TIC_Query 0
#RT_Query -1
#MZErrorPPM -1
#SharedPeaks 0
#MassDiff 0
#LibMZ -1
#SpecMZ 333.097
#SpecCharge 0
#internalFilename spec-00000.mgf

>collision 10
96.585724 156.0
98.852165 208.0
99.534042 100.0
103.51046 176.0
105.586151 124.0
106.003761 204.0
112.132782 172.0
113.032387 156.0
114.11837 228.0
114.951195 140.0
118.038429 204.0
119.006538 184.0
119.073853 212.0
120.45475 180.0
120.832939 160.0
121.032112 128.0
122.03968 168.0
123.043861 140.0
125.061066 200.0
131.624054 72.0
133.034927 164.0
133.97261 136.0
135.043839 180.0
137.994598 112.0
138.072464 160.0
141.940857 20.0
146.816864 100.0
147.795166 84.0
149.023575 1460.0
149.124069 100.0
149.520493 104.0
150.033661 192.0
150.673828 48.0
151.03714 620.0
151.072296 164.0
152.047485 116.0
153.018417 100.0
154.13324 176.0
155.954712 144.0
156.029282 168.0
156.046692 152.0
158.895996 144.0
159.077026 132.0
161.018295 108.0
163.03476 176.0
165.058884 108.0
166.028168 160.0
167.031067 196.0
169.043411 220.0
171.416824 176.0
173.444855 140.0
174.074509 176.0
176.274033 144.0
177.017502 644.0
177.438614 52.0
178.024536 112.0
178.402283 64.0
179.034363 572.0
179.309937 108.0
181.048508 772.0
181.118744 164.0
181.357208 48.0
181.939651 144.0
182.237396 88.0
182.344879 44.0
182.533051 104.0
183.046997 128.0
186.871582 152.0
189.692642 168.0
192.949295 184.0
193.046127 744.0
194.015137 156.0
194.056717 304.0
195.020264 156.0
201.021683 188.0
202.140671 192.0
204.934662 204.0
205.137009 128.0
207.034149 164.0
208.132401 140.0
208.497223 188.0
209.042923 3932.0
209.366013 44.0
210.046875 680.0
211.279678 56.0
211.357803 52.0
212.673477 104.0
213.841858 32.0
214.066025 228.0
215.063065 248.0
216.759262 152.0
219.023773 308.0
219.083252 60.0
220.026031 144.0
221.132446 84.0
229.057037 216.0
233.044296 124.0
272.994232 116.0
274.047546 124.0
296.861725 152.0
301.05658 116.0
312.117096 92.0
313.053101 56.0
315.50528 196.0
331.19751 136.0
332.898407 188.0
333.206543 148.0
334.210999 152.0
339.08197 188.0
381.985382 116.0
403.007599 100.0
475.27063 80.0
525.405029 20.0
534.278809 20.0
676.349243 20.0
900.156311 20.0
1130.52832 188.0
1233.009277 160.0
1247.672852 188.0
1260.182373 48.0
1287.166138 200.0
1300.574951 100.0
1368.676025 168.0
1426.560181 192.0
1428.748535 184.0
1434.283203 92.0
