>compound MLS001049133-01!2,4,5-trimethoxybenzonitrile
>formula C10H11NO3
>ionization [M+H]+
>parentmass 194.082
#inchi InChI=1S/C10H11NO3/c1-12-8-5-10(14-3)9(13-2)4-7(8)6-11/h4-5H,1-3H3
#inchikey QYLMOMNYCPHSJW
#Ion_Source LC-ESI
#Instrument qTof
#Compound_Source NIH Natural Product Library
#PI Dorrestein
#Data_Collector VVP/LMS
#Scan -1
#Precursor_MZ 194.082
#ExactMass 193.074
#Charge 1
#CAS_Number N/A
#Pubmed_ID N/A
#Smiles COc1cc(OC)c(C#N)cc1OC
#INCHI_AUX N/A
#Library_Class 1
#SpectrumID CCMSLIB00000079849
#IonMode Positive
#UpdateWorkflowName UPDATE-SINGLE-ANNOTATED-GOLD
#LibraryQualityString Gold
#TaskID b1d8e8f6646f4e71acdff9ca3d919d08
##Scan# 1801
#SpectrumFile p1-H11_GH11_01_17967.mzXML
#LibraryName NIH_Natural_Products_Library.mgf
#MQScore -1
#Organism NIH_Natural_Products_Library
#TIC_Query 0
#RT_Query -1
#MZErrorPPM -1
#SharedPeaks 0
#MassDiff 0
#LibMZ -1
#SpecMZ 194.082
#SpecCharge 0
#internalFilename spec-00000.mgf

>collision 10
95.016373 152.0
95.049355 128.0
96.016197 104.0
96.039604 40.0
96.86644 88.0
96.995773 176.0
97.048706 148.0
97.988205 176.0
99.310699 132.0
100.452469 208.0
100.656044 152.0
101.02784 216.0
101.097832 228.0
101.456367 180.0
101.883835 128.0
103.357697 136.0
103.456871 212.0
104.016052 180.0
104.045776 168.0
105.058273 132.0
106.027771 692.0
106.074623 184.0
106.980553 176.0
107.038063 308.0
107.853119 124.0
108.042587 412.0
109.027618 1180.0
109.213333 56.0
110.027969 432.0
110.049004 184.0
110.069885 140.0
111.011551 120.0
111.028908 168.0
111.055595 168.0
112.020416 216.0
112.505447 232.0
112.947105 228.0
113.436256 212.0
113.455338 148.0
114.487999 216.0
114.754356 152.0
115.62352 152.0
115.724373 52.0
117.023369 140.0
117.771683 124.0
118.02951 960.0
118.178101 148.0
118.440048 68.0
119.011276 352.0
119.032814 328.0
120.004761 156.0
120.020027 196.0
120.041824 860.0
120.087631 152.0
120.738472 128.0
121.029686 372.0
121.685104 156.0
122.022179 332.0
122.065765 196.0
122.803001 164.0
123.042435 452.0
123.118607 176.0
123.156151 64.0
123.22242 64.0
123.255562 132.0
123.598305 252.0
123.84182 128.0
124.078934 92.0
124.867233 88.0
125.517502 204.0
126.017487 168.0
126.053238 180.0
127.128136 172.0
127.323448 152.0
128.742264 164.0
130.028183 240.0
131.528122 164.0
131.955322 192.0
132.039597 136.0
132.04541 332.0
133.042313 168.0
133.342178 128.0
133.450211 172.0
133.984177 160.0
134.023941 324.0
134.055603 324.0
135.026154 500.0
135.682846 192.0
136.038864 3428.0
136.11673 60.0
136.360657 48.0
136.423416 32.0
137.041061 492.0
137.189316 84.0
137.298904 180.0
137.609253 112.0
137.667633 52.0
138.043869 160.0
138.078949 48.0
139.800949 68.0
140.340378 96.0
146.025848 628.0
146.055542 200.0
146.51123 180.0
147.027237 140.0
148.039902 784.0
149.043381 140.0
149.078461 148.0
149.504044 132.0
150.049362 324.0
151.038269 1580.0
152.044983 1168.0
152.20282 56.0
153.043091 564.0
153.142258 72.0
153.230942 88.0
154.052475 196.0
157.995361 164.0
159.977936 84.0
161.049622 224.0
161.937408 184.0
162.018036 296.0
162.799698 76.0
162.997849 104.0
163.020538 172.0
163.066086 188.0
164.033951 5536.0
164.074493 44.0
164.161179 60.0
164.263199 64.0
164.293808 108.0
164.398422 60.0
164.623077 80.0
164.968002 96.0
165.037231 796.0
165.405441 96.0
165.733246 76.0
166.037292 192.0
166.34877 112.0
166.39241 108.0
166.77774 140.0
167.029739 156.0
167.068314 148.0
173.973618 160.0
174.060272 128.0
175.700027 148.0
176.146179 148.0
177.116959 164.0
177.947021 68.0
177.978882 152.0
178.047852 148.0
179.021942 172.0
179.057526 1628.0
179.538269 132.0
179.644684 76.0
180.061356 176.0
180.403381 52.0
180.438126 104.0
181.013397 128.0
181.107132 128.0
189.048386 44.0
191.987885 164.0
194.003586 132.0
194.07843 120.0
195.734528 76.0
210.08699 144.0
216.071503 156.0
224.007217 184.0
238.269806 76.0
241.067596 124.0
242.072983 120.0
252.485291 20.0
252.991547 156.0
256.288269 72.0
295.573669 60.0
409.864838 20.0
437.739655 40.0
512.712891 56.0
539.222046 112.0
723.624756 40.0
776.928894 40.0
823.702942 156.0
933.29248 120.0
938.620422 220.0
961.465759 204.0
1006.073059 180.0
1013.023071 176.0
1020.289429 212.0
1076.989258 160.0
1092.571167 196.0
1124.998535 36.0
1136.993286 124.0
1178.273071 208.0
1194.719971 116.0
1194.953857 148.0
1203.631714 48.0
1210.373657 160.0
1211.966797 180.0
1216.398438 152.0
1222.605225 112.0
1238.285156 196.0
1243.565308 216.0
1248.708374 140.0
1252.149902 144.0
1260.855957 220.0
1262.687134 116.0
1281.669678 176.0
1290.549072 152.0
1306.701294 144.0
1335.114868 176.0
1340.67688 52.0
1362.797852 176.0
1381.620605 60.0
1389.080444 192.0
1393.735474 116.0
1400.862915 164.0
1405.246582 200.0
1421.498779 176.0
1424.531982 208.0
1438.032959 180.0
1440.373657 52.0
1452.136108 160.0
1459.821777 156.0
1460.422607 136.0
1467.962402 164.0
1480.770874 176.0
1492.666016 152.0
1493.28125 132.0
1498.015137 280.0
1501.298584 180.0
