>compound Asenapine
>formula C17H16ClNO 
>ionization [M+H]+
>parentmass 286.1008
#inchi InChI=1S/C17H16ClNO/c1-19-9-14-12-4-2-3-5-16(12)20-17-7-6-11(18)8-13(17)15(14)10-19/h2-8,14-15H,9-10H2,1H3/t14-,15-/m0/s1
#inchikey VSWBSWWIRNCQIJ
#Ion_Source LC-ESI
#Instrument qTof
#Compound_Source Isolated
#PI Sirenas
#Data_Collector Ed Esquenazi 
#Scan -1
#Precursor_MZ 286.1
#ExactMass 0.0
#Charge 1
#CAS_Number N/A
#Pubmed_ID N/A
#Smiles N/A
#INCHI_AUX N/A
#Library_Class 3
#SpectrumID CCMSLIB00000006500
#IonMode Positive
#UpdateWorkflowName UPDATE-SINGLE-ANNOTATED-BRONZE
#LibraryQualityString Bronze
#TaskID d19310cd93df49b68e9fcbec27720eb5
##Scan# 2
#SpectrumFile Asenapine.mgf
#LibraryName fda_library.mgf
#MQScore -1
#Organism fda_library
#TIC_Query 0
#RT_Query -1
#MZErrorPPM -1
#SharedPeaks 0
#MassDiff 0
#LibMZ -1
#SpecMZ 286.1
#SpecCharge 0
#internalFilename spec-00000.mgf

>collision 10
103.053291 125.657097
103.348465 8.205259
104.291 2.673132
105.01046 3.680556
105.068916 230.733002
105.14563 4.505208
105.590904 4.740833
107.049583 612.554199
107.105751 4.84741
107.484123 2.855978
108.081024 16.66964
110.998055 19.234699
113.014915 43.884861
114.446114 4.013355
115.054008 511.769806
117.069191 534.734375
117.632042 11.94092
118.925743 17.940479
119.029335 2.780092
119.048553 102.408401
119.326416 9.028985
120.079941 109.312897
120.230225 8.600278
120.262932 3.901389
121.065063 210.090302
122.057121 37.732479
125.013992 319.684204
125.247704 8.535088
125.470154 4.300595
127.030579 21.780291
127.055931 114.032402
128.062912 414.338196
128.150055 11.34186
128.891907 11.90829
129.069244 919.65387
130.037903 27.40634
131.051224 37.06871
131.072418 293.759094
132.079376 522.371826
133.052383 13.73587
133.067245 52.041592
133.088333 603.93811
133.268326 8.004504
133.296829 5.273809
133.356491 7.461436
133.390594 6.744907
133.416962 3.006048
133.513428 3.760417
134.057892 26.974119
137.012909 21.708891
138.823212 9.372808
139.028473 27.04133
139.053467 27.794519
140.437592 12.08482
140.781036 6.719217
141.01059 1114.050049
141.959854 7.024899
142.039322 16.31975
143.04895 47.17498
143.07106 64.535507
143.372787 3.984543
143.408844 9.561237
144.080292 1157.963989
144.233002 13.79948
144.445251 4.848214
144.453629 8.189655
144.527527 3.580044
144.999176 10.50032
145.063416 35.625679
145.168442 5.386905
145.244949 8.519048
145.292847 10.27222
145.896271 9.1875
146.037628 10.66026
146.096512 510.224487
147.070007 45.691189
148.07695 275.372498
149.01506 337.688599
150.946655 21.80331
151.031235 517.630981
151.062637 3.12004
151.152176 4.253472
151.472015 4.277778
152.060028 33.71302
153.005142 36.80064
153.040604 23.81838
153.068344 19.20661
153.290329 8.934524
153.307343 8.504762
154.039017 78.205467
154.278076 10.43212
155.026047 191.386093
155.377457 4.902778
156.080093 42.16074
157.062027 43.503811
157.089493 169.793503
158.09613 379.054901
159.068726 22.16025
159.104034 355.925507
159.142639 3.8125
160.074493 87.371277
161.079498 81.612053
162.023788 172.985992
163.032547 160.404907
164.036789 355.092194
164.167221 9.185927
164.220276 9.910178
164.965424 11.22024
165.011185 76.239594
165.069 1416.31604
165.185715 11.41557
166.077728 2418.066895
166.155365 9.756299
166.233841 9.132184
166.292023 8.148809
166.367264 8.265432
166.486862 8.413377
166.724609 5.520833
167.023788 16.874359
167.048874 424.046295
167.136215 3.185606
167.411911 10.49425
168.020523 29.83346
168.984726 6.354167
169.024399 28.82748
170.036224 139.319794
172.07489 49.06432
174.74205 20.093941
177.00705 35.500351
177.028809 15.34602
177.066147 47.420521
177.62915 9.055555
178.041504 189.633301
178.077972 66.175652
178.273132 11.71769
178.308655 2.449074
178.392014 11.36274
179.025528 70.917023
179.049744 353.635498
179.420151 12.00914
180.017792 48.915489
180.057953 637.564575
180.086166 25.576389
180.098923 4.255208
180.148117 4.347222
181.02449 29.43631
182.035797 398.589294
182.071945 104.633301
182.095108 16.41605
187.662018 8.102134
189.043793 21.887449
189.439804 6.966667
189.575592 19.37472
189.962387 11.16793
190.080612 22.274191
190.346207 4.167339
191.053268 31.64286
191.085876 334.746094
191.11145 23.64982
191.124557 6.012097
191.371979 9.47405
191.542114 3.351974
192.057968 155.415604
192.093674 1003.939026
192.178192 15.46771
192.330414 11.0
192.378601 13.31532
192.782608 5.69697
193.013184 8.449074
193.065002 272.191986
193.900101 9.905406
193.969208 8.264544
194.034958 76.184937
194.072525 1462.970947
194.255066 9.826667
194.50592 11.84659
194.719574 4.66723
194.887589 3.068055
196.108002 6.260671
196.535446 5.000631
199.027084 58.744289
199.855087 5.166667
199.896408 10.46007
199.919144 18.202221
199.962601 8.865079
199.975418 14.51071
200.103775 14.29926
200.278442 4.349116
200.293289 9.461309
200.386917 7.16713
201.004715 19.673611
201.046753 6633.474121
201.09726 5.351852
201.106949 50.202709
201.125961 16.72991
201.16684 15.62617
201.180267 7.503827
201.193695 10.14821
201.207687 21.480579
201.21785 18.842979
201.240936 18.707109
201.253647 11.83929
201.275894 34.879669
201.323395 8.891666
201.336578 4.981617
201.371124 11.03309
201.388687 25.07163
201.416901 20.00943
201.500198 11.59375
201.525513 36.760941
201.645584 9.170455
201.687119 19.35157
201.744949 15.61313
201.802475 5.282609
201.837067 8.68254
201.956879 12.52083
202.076508 411.684814
203.386032 12.33472
204.057709 9.871913
205.038773 29.37274
205.063583 267.846008
205.092773 11.60025
205.396545 9.523809
206.839737 10.34732
207.081482 111.844597
207.116348 19.42005
208.088989 76.516373
209.098236 74.717453
209.5504 3.727941
210.105988 85.161133
211.028549 3.174167
211.479233 4.725
212.039764 151.359894
213.052063 10.3913
213.491791 11.81589
213.647247 7.942402
213.75679 9.703704
213.939941 5.297861
214.505325 13.38562
214.538651 4.445833
214.979935 29.01775
214.99675 10.36427
215.025726 5019.373047
215.092148 42.401501
215.124374 15.90761
215.162308 10.8359
215.198334 6.791667
215.239044 26.7871
215.274902 17.63566
215.29335 20.63125
215.309235 8.314815
215.330765 4.673132
215.34346 42.152
215.396179 12.37335
215.42395 36.28236
215.524536 27.736349
215.556351 7.964015
215.642548 19.417839
215.664764 11.81431
215.822754 3.466009
215.902924 7.864015
215.948593 4.07337
216.183838 15.35043
217.040588 274.679596
217.736923 11.01852
217.860001 10.33452
218.071609 197.3013
218.384872 9.735035
218.585403 24.226721
218.923798 31.600809
219.045685 32.43116
219.08049 1609.904053
219.158524 13.25149
219.357635 23.58688
219.671967 8.905093
219.722198 10.8625
219.759735 12.44277
220.047897 19.381941
220.088638 4170.471191
220.166595 18.02183
220.211197 3.913377
220.223587 10.83333
220.24823 13.07417
220.285324 14.66987
220.405991 14.31629
220.435165 1.5625
220.461441 2.786706
220.479385 16.52495
220.512436 4.667659
220.528015 9.851352
220.652283 12.1884
220.682953 4.127604
220.727509 28.53824
220.741669 11.4834
220.756393 16.771629
220.772614 14.53707
220.84053 9.043478
221.160461 9.314858
221.348343 10.79637
221.391602 3.080128
221.427048 10.40152
221.50618 17.62245
222.1026 397.422607
222.2052 11.52741
222.552612 3.005682
225.047821 10.41325
225.724487 9.833591
225.766342 9.349648
226.050293 30.695271
226.271011 6.729167
226.300873 10.54504
227.023026 25.04771
227.0625 1012.088989
227.160202 8.921875
227.242432 11.51157
227.35173 13.24747
227.562881 3.204167
227.588699 21.66577
227.599747 3.668269
227.647858 9.860015
227.665024 11.51786
227.700851 12.58963
227.714996 10.66904
227.732666 18.347759
227.76001 14.9539
227.779984 16.561081
227.796722 26.63048
227.847321 46.886478
227.893829 13.50947
227.910156 6.407461
227.96785 12.26615
227.99733 5.4375
228.031235 114.149101
228.082916 15.5625
228.140518 10.84247
228.205063 20.068911
228.434341 11.08081
228.471664 15.025
228.48793 22.07029
228.778015 7.429167
229.04213 20053.150391
229.106293 20.927271
229.145538 4.469445
229.182343 8.000672
229.215927 31.66526
229.26683 7.548214
229.284775 16.80492
229.304764 23.2866
229.340561 45.635609
229.363403 29.51211
229.393188 17.969469
229.424927 13.33059
229.438141 26.97105
229.469513 28.04632
229.515671 52.516159
229.547455 48.848652
229.583313 15.17272
229.599442 41.177631
229.633209 9.315104
229.649063 11.34083
229.661835 9.925744
229.677368 7.337963
229.693192 4.002976
229.743027 8.513888
229.805756 14.89647
229.915512 12.00167
229.941971 28.626801
229.97403 18.639111
229.996521 10.52724
230.077042 10.92803
230.131042 5.682449
230.156631 9.054825
230.184341 19.72563
230.321045 3.5
230.727753 5.670834
231.127594 10.50694
231.22139 4.761905
232.114502 17.241911
232.766861 11.33364
232.946503 7.857143
233.096939 14.26593
233.120102 11.11947
234.094894 498.019501
234.123505 51.05822
234.383041 6.411859
235.450592 18.54232
236.107742 613.181519
237.016159 7.012703
237.04985 84.922623
237.530472 4.501096
239.02655 85.400581
239.912369 11.62255
240.031143 138.192398
240.089859 10.08081
241.041153 212.494202
241.379562 12.67814
241.596283 11.52128
241.920593 5.729167
243.058105 379.256195
243.506287 9.180021
243.986435 9.190434
244.046341 9.176494
245.076447 43.186699
245.623413 6.74074
246.072449 32.379169
248.107468 23.09482
249.112411 26.320681
249.560959 13.06202
250.123489 578.098877
250.609039 4.691468
250.931427 19.83568
251.130264 316.684814
252.036133 39.160919
253.039566 118.354401
253.066086 21.59075
253.627457 8.013888
254.048325 66.37674
254.070847 21.80456
254.430267 10.05556
254.503998 16.20891
254.632339 11.52083
254.999756 31.146009
255.057465 4336.138184
255.12532 20.25177
255.172638 11.30278
255.19342 36.491879
255.214493 1.361111
255.260574 14.86735
255.281189 2.871142
255.294815 9.235
255.389587 2.895833
255.45639 38.963501
255.520004 15.56087
255.609375 3.888889
255.635086 24.66143
255.657364 9.301667
255.670975 8.21875
255.717346 25.25692
255.776123 4.685417
255.832199 10.00914
256.165833 9.501737
256.405914 14.41241
256.487671 5.866667
256.8284 5.695513
257.073547 1903.869995
257.24707 9.908334
257.292816 12.44817
257.906799 8.380952
258.179749 4.355392
258.235657 3.852083
258.342438 11.68056
259.008362 19.883739
259.427795 6.320988
268.088867 15.0
269.088623 15.967
269.149994 8.880908
270.06601 199.208801
271.075653 1214.446045
271.384705 13.43602
271.838562 3.686404
276.206818 32.689381
280.597778 10.00734
281.085663 3.315476
282.366302 10.75587
282.996307 3.945833
283.620636 114.948601
283.8573 3.395833
284.086914 331.832306
284.201935 22.817261
284.229187 12.4289
284.258514 104.748802
284.29187 24.52142
284.314911 202.663101
284.360077 101.394096
284.379089 123.6716
284.40329 128.799301
284.423279 218.378906
284.450317 225.690002
284.478912 115.872704
284.493866 97.491943
284.52829 19.371
284.554047 161.977798
284.568573 7.167439
284.626648 69.379791
284.65741 37.130772
284.676941 148.367996
284.719666 28.19861
284.737671 45.41927
284.778625 59.77256
284.833893 33.24482
285.013702 26.43561
285.042023 29.738871
285.153046 44.837589
285.187042 31.20553
285.211945 55.203579
285.341064 26.66403
285.435944 28.66827
285.515808 87.236557
285.535706 29.887251
285.576447 61.17247
285.646454 34.21619
285.717102 17.66633
285.751343 26.294979
285.821564 10.2563
285.842468 40.726509
285.869812 24.872129
285.911957 21.788639
285.945129 28.46726
285.988373 32.774712
286.004028 13.59387
286.044098 23.05875
286.1008 199164.90625
286.237762 2.740036
286.318604 10.0625
286.385803 22.27809
286.608551 222.424393
286.637146 143.903107
286.69339 117.9077
286.730438 249.986801
286.762238 38.638771
286.786835 164.886002
286.814636 101.2873
286.845642 141.828506
286.892456 132.737595
286.937347 84.068893
286.971008 24.72212
287.008911 49.096451
287.024353 76.541847
287.05127 35.810398
287.177002 137.182098
287.249084 19.564381
287.307922 20.94245
287.330261 41.487492
287.372467 92.509338
287.410492 7.673349
287.437286 75.927727
287.482483 26.05438
287.548889 46.051151
287.578094 39.204269
287.620209 18.427401
287.647766 60.074871
287.921448 12.29351
287.954193 4.65308
287.993195 33.195889
288.159729 2.722222
288.260529 19.97303
288.325439 11.39306
288.471344 13.39346
288.52002 13.83435
288.711517 5.226852
288.853119 8.851914
288.959991 22.910219
289.135071 15.66856
289.339722 17.847601
289.495636 7.4375
289.537415 4.960022
289.556396 10.72596
289.595703 3.352273
289.652954 12.26573
289.696991 11.20614
289.770538 12.51905
289.819458 5.044445
289.945496 12.45238
289.981567 15.10355
290.230408 14.66688
290.26593 10.8588
290.406036 20.08098
290.579041 8.280093
290.776001 10.03653
290.835205 4.856019
291.203217 13.78482
291.351715 7.180021
291.556183 11.78782
291.993286 3.837694
293.958344 8.540013
295.312683 9.293651
296.552673 10.21933
305.531555 10.86667
312.840088 8.983404
427.127777 12.02885
495.091858 9.00032
534.817505 3.509259
691.005737 23.025
771.357361 28.034809
963.617798 8.867045
1162.040649 1.0375
1247.797119 19.93815
1272.109009 9.143283
1273.58313 3.84741
