>compound Prasugrel
>formula C20H20FNO3S 
>ionization [M+H]+
>parentmass 374.123
#inchi InChI=1S/C20H20FNO3S/c1-12(23)25-18-10-14-11-22(9-8-17(14)26-18)19(20(24)13-6-7-13)15-4-2-3-5-16(15)21/h2-5,10,13,19H,6-9,11H2,1H3
#inchikey DTGLZDAWLRGWQN
#Ion_Source LC-ESI
#Instrument qTof
#Compound_Source Isolated
#PI Sirenas
#Data_Collector Ed Esquenazi 
#Scan -1
#Precursor_MZ 374.123
#ExactMass 0.0
#Charge 1
#CAS_Number N/A
#Pubmed_ID N/A
#Smiles N/A
#INCHI_AUX N/A
#Library_Class 3
#SpectrumID CCMSLIB00000006115
#IonMode Positive
#UpdateWorkflowName UPDATE-SINGLE-ANNOTATED-BRONZE
#LibraryQualityString Bronze
#TaskID d19310cd93df49b68e9fcbec27720eb5
##Scan# 3
#SpectrumFile Prasugrel.mgf
#LibraryName fda_library.mgf
#MQScore -1
#Organism fda_library
#TIC_Query 0
#RT_Query -1
#MZErrorPPM -1
#SharedPeaks 0
#MassDiff 0
#LibMZ -1
#SpecMZ 374.123
#SpecCharge 0
#internalFilename spec-00000.mgf

>collision 10
100.024597 11.3869
101.04158 97.945343
102.035805 61.49091
103.054916 23.72781
108.055008 80.070793
108.367195 18.403299
108.379051 15.52083
108.40918 6.564103
108.441734 15.33415
108.459846 4.017857
108.477531 11.92188
108.492508 9.335318
108.516403 25.01827
108.525452 19.899429
108.563492 37.207371
108.583076 14.28736
108.596153 6.625
108.633797 39.390572
108.644867 24.044331
108.662865 9.680555
108.70639 19.669451
108.735374 11.33772
108.793427 8.033603
108.823181 10.37255
108.840637 4.481482
108.868011 17.769609
108.908028 8.259259
109.007629 10.64015
109.04509 26438.730469
109.088898 42.72403
109.102478 19.65621
109.120247 8.333333
109.138283 11.74898
109.145691 4.037037
109.157227 6.370614
109.18454 5.185606
109.226006 14.52083
109.240753 55.347519
109.254761 27.83498
109.281937 45.377571
109.290016 5.852273
109.314003 39.928711
109.334366 58.972618
109.362648 43.997849
109.374779 12.46944
109.393143 37.550091
109.406082 33.15723
109.430817 43.815739
109.458969 48.818588
109.468079 29.008329
109.487373 69.433243
109.516731 9.960366
109.522621 42.908051
109.552383 14.49662
109.567619 34.365952
109.593544 27.6803
109.612259 22.197531
109.647293 10.84028
109.677544 5.333333
109.698853 17.217991
109.7864 15.84375
109.918327 23.95772
110.047462 215.320999
110.169502 8.635753
110.38295 18.705429
110.878906 8.893518
111.025269 107.507896
111.199493 16.529091
111.441658 7.008333
112.234749 9.190315
112.308472 6.720238
113.970322 35.080029
115.052589 134.775299
116.287094 6.629902
118.063454 35.30616
120.043694 93.201759
121.044907 1139.656006
121.258209 7.388514
121.411491 7.422222
121.4823 4.225
121.795036 12.66912
122.060043 653.098328
122.172218 24.01145
122.256279 7.429762
122.310127 8.775537
123.023972 446.694
123.60498 11.60198
124.156128 7.843137
125.038559 415.676086
125.649117 4.763889
125.832458 6.737069
126.013718 30.497749
126.035507 130.473694
126.066719 2.016667
126.437126 4.483333
126.469376 8.1875
126.508873 49.334259
126.551552 11.9616
127.020828 690.038086
127.054008 280.880188
127.088264 3.66886
127.325615 8.5
127.363075 10.7815
127.783257 5.069444
128.061981 509.311188
128.386917 15.49745
128.42598 17.1201
128.438004 11.30616
128.582947 9.676802
128.621368 13.27083
128.64006 6.615
128.861145 18.12855
128.977905 12.55408
129.069901 6473.028809
129.120255 63.29752
129.127747 6.494048
129.134918 28.593861
129.167084 17.013359
129.19136 33.852631
129.216599 24.04537
129.231461 41.345139
129.266281 20.334061
129.28746 15.88023
129.306107 12.5126
129.333572 16.69253
129.392929 14.08681
129.406555 10.55147
129.499908 2.761364
129.506622 10.40761
129.546921 8.891666
129.662155 19.09959
129.677994 11.10965
129.868149 14.44537
129.895996 7.560484
130.026657 20.082649
130.261017 13.05333
130.272827 23.720091
130.6978 13.14682
131.048355 8.008721
132.313858 11.14982
132.482117 27.39456
132.574097 12.0
132.651047 10.74405
133.044846 447.192291
133.278473 16.75
133.304123 4.358333
133.368393 11.0
133.408585 6.335784
133.604309 12.22377
133.890976 12.05357
133.965286 36.973351
133.991852 12.4406
134.020554 25.16279
134.052551 2530.854004
134.104614 11.48333
134.120743 2.0
134.14476 11.34091
134.187363 2.449074
134.214905 13.91159
134.250381 17.027781
134.302094 17.579269
134.349823 35.351608
134.378723 13.00463
134.425415 24.36742
134.452927 11.29111
134.483597 9.960366
134.504318 15.06833
134.519409 15.41667
134.564285 11.8642
134.64502 7.138889
134.653091 6.04529
134.693787 16.33633
134.754028 16.389641
134.789658 22.213329
135.035065 68.56076
135.060165 10510.30957
135.109573 124.336403
135.125824 12.34843
135.139023 10.82843
135.150085 24.74321
135.175507 44.561951
135.190933 17.11725
135.247864 28.44511
135.270615 19.14674
135.291611 27.667089
135.301666 23.653509
135.318344 44.74379
135.339401 26.83753
135.372452 10.375
135.401657 39.673531
135.421234 16.305559
135.44429 6.615
135.470139 11.36925
135.502838 41.58461
135.524933 14.075
135.617798 13.22917
135.639893 6.67803
135.655258 25.290501
135.715988 8.815
135.866547 12.54672
135.914917 11.85833
136.032333 408.254211
136.187424 14.33333
136.27269 11.51022
136.362106 12.08681
136.370178 6.671568
136.605911 5.371913
136.837769 4.34375
137.005463 35.297619
137.021973 42.778511
137.204193 6.840278
137.946823 7.880952
138.070404 182.303894
138.110413 3.0
138.274002 6.095238
139.020645 265.904388
139.123169 20.518591
139.146805 9.428572
141.035843 27.416479
141.51297 13.2402
142.062485 58.856659
145.044708 64.8517
145.189072 8.5
145.214172 44.402302
146.051331 128.126007
146.403809 11.07562
146.517715 9.02671
146.776718 17.12855
146.795731 10.33974
146.838287 8.013888
147.059952 3226.178955
147.082535 8.386905
147.112228 32.51825
147.13382 19.44298
147.229553 13.49662
147.242905 6.361111
147.271439 17.320511
147.335785 6.391026
147.369568 11.01449
147.378021 8.523648
147.407547 15.66774
147.490326 24.933331
147.517426 7.347222
147.534332 33.503731
147.556091 26.601669
147.611511 27.04167
147.648438 4.408333
147.669571 21.37582
147.703415 7.378623
147.77121 19.520321
147.872574 7.001984
148.020676 11.08333
148.088547 37.780949
148.123169 20.69389
148.156464 55.378361
148.190231 67.948593
148.201172 8.630952
148.227936 86.537621
148.246628 86.077118
148.263275 32.23
148.28331 115.8759
148.295914 6.095238
148.305725 41.054489
148.324753 92.207642
148.34552 69.614769
148.363525 14.47619
148.385315 59.450699
148.397598 15.75
148.418777 21.550461
148.432556 6.857143
148.444214 18.73768
148.453461 32.395199
148.464279 68.853867
148.510544 49.005371
148.564087 33.292679
148.609573 17.006149
148.626877 21.48077
148.707123 25.13274
148.766571 42.761791
148.798004 33.989151
148.834579 27.33602
148.863663 7.272727
148.900467 23.42178
148.921707 53.224388
148.951202 33.608971
148.978775 13.35299
149.00679 52.705879
149.039627 14548.910156
149.076416 78103.632812
149.128586 208.901901
149.208649 45.15089
149.217026 13.08333
149.262894 88.492203
149.296082 35.910999
149.312576 22.08824
149.34166 50.980141
149.370087 43.880508
149.439011 32.933331
149.44989 80.084763
149.478638 59.531189
149.499908 51.146412
149.52211 38.17609
149.535599 41.991051
149.561478 21.789869
149.573471 64.006317
149.605499 134.019104
149.645416 61.000469
149.659348 39.462681
149.685745 17.11846
149.691406 111.271797
149.72142 50.817169
149.743286 67.197884
149.775848 22.316111
149.788818 28.88969
149.807007 16.138889
149.84668 78.22979
149.877533 43.495869
149.907623 15.38384
149.936966 42.142029
149.965103 35.0117
150.010101 35.000641
150.328888 47.857979
150.361816 10.49597
150.397568 22.51548
150.583969 11.19032
150.59671 22.193911
150.627472 10.74405
150.708084 10.89851
150.763245 6.692308
151.070999 17.494949
151.147949 8.0
151.16095 13.84396
151.334351 8.469444
151.503143 7.360043
151.756226 6.673611
151.857864 15.84052
152.000885 17.1024
152.755966 8.729167
152.91687 11.35417
152.975739 26.472219
153.001266 11.68333
153.186356 9.000926
153.410339 13.37778
153.625854 14.0651
154.032104 439.905396
154.070312 2.339286
154.191238 8.881579
155.038834 621.500305
156.080933 149.216599
157.065353 68.349213
157.258301 16.81579
157.291061 10.33477
158.186752 8.015151
158.313675 16.211849
159.061127 816.468201
159.238617 6.422222
159.30867 18.770109
159.402451 23.76276
159.539017 12.51852
159.602127 7.0
160.051727 101.532898
161.063477 166.8685
161.178986 7.259615
161.282257 6.564103
161.629547 8.893518
161.764145 8.333333
162.046738 1547.282959
162.10051 10.42222
162.149689 20.93548
162.318207 21.246981
162.689224 7.375
162.721161 8.016666
165.056595 36.832039
168.043228 55.75901
168.559433 18.020269
174.023026 32.076191
174.070969 338.104401
174.105621 5.666667
174.473099 15.4401
174.487228 26.3734
174.629333 18.018749
174.850143 7.969086
174.937057 8.741667
175.959747 49.265781
176.023285 63.54031
176.057053 23.363331
176.085953 1591.781006
176.127045 20.111111
176.136642 194.941696
176.150818 7.354167
176.170654 20.408331
176.187088 54.37635
176.226349 65.830009
176.239014 37.536308
176.283707 30.000731
176.298233 19.430559
176.33194 14.88158
176.352966 19.189489
176.385376 37.942799
176.445328 13.36794
176.45668 23.198771
176.607437 15.76179
176.75473 11.88005
176.798203 10.19048
176.930878 12.33681
176.988922 13.42424
177.071259 42482.679688
177.217865 42.697369
177.263626 40.24123
177.288437 25.6597
177.319855 9.893518
177.371002 26.111111
177.396729 12.92593
177.407837 2.666667
177.445892 20.561991
177.462418 19.764709
177.482269 23.212469
177.507889 22.132999
177.54071 57.75182
177.570389 6.177631
177.586334 50.162109
177.59787 7.130208
177.607193 11.41667
177.644485 3.375
177.657028 103.938904
177.667435 8.573529
177.676895 20.1696
177.697952 35.002491
177.753021 17.85783
177.780884 43.9021
177.8116 20.23015
177.824844 3.375
177.862564 46.723942
177.899429 13.07407
177.930603 74.917809
178.015366 11.75347
178.050644 46.72794
178.102356 402.7659
178.246719 11.71429
178.399948 13.82692
178.477737 44.87849
178.726242 22.00041
178.796005 7.001068
178.826675 6.967105
178.898193 8.669444
178.949631 17.48214
179.03331 7.533333
179.578369 9.001543
179.681046 10.40374
179.806992 21.185699
180.007523 11.06368
180.469894 6.386905
181.508102 10.13333
181.935669 7.041667
183.666626 29.84314
185.061066 36.240631
185.93663 13.82828
186.068909 151.755096
188.087433 81.872581
188.115585 7.711957
188.306534 12.03347
195.190216 6.366936
204.887695 12.43011
204.932388 14.85192
204.972229 10.33333
205.134979 6.926282
205.689697 20.46944
206.09729 3676.303955
206.153488 28.585939
206.244278 10.67539
206.319275 23.71982
206.336807 19.125
206.354187 27.36268
206.368927 24.33333
206.440018 17.14352
206.509171 8.737069
206.543381 18.711109
206.679703 7.410257
206.69928 9.668859
207.049347 13.35294
207.237564 8.300439
207.336121 26.39007
208.122101 25.058821
211.609863 25.35161
221.039154 13.09091
242.111923 9.666667
246.078979 18.3908
250.066086 9.337121
315.702728 44.208328
332.105408 50.337959
607.014465 8.667636
624.549194 54.086369
721.103638 18.63456
998.347473 10.16329
1642.189453 79.000237
1681.643066 8.016666
