>compound TriamcinoloneAcetonide
>formula C24H31FO6 
>ionization [M+H]+
>parentmass 435.218
#inchi InChI=1S/C24H31FO6/c1-20(2)30-19-10-16-15-6-5-13-9-14(27)7-8-21(13,3)23(15,25)17(28)11-22(16,4)24(19,31-20)18(29)12-26/h7-9,15-17,19,26,28H,5-6,10-12H2,1-4H3/t15-,16-,17-,19+,21-,22-,23-,24+/m0/s1
#inchikey YNDXUCZADRHECN
#Ion_Source LC-ESI
#Instrument qTof
#Compound_Source Isolated
#PI Sirenas
#Data_Collector Ed Esquenazi 
#Scan -1
#Precursor_MZ 435.218
#ExactMass 0.0
#Charge 1
#CAS_Number N/A
#Pubmed_ID N/A
#Smiles N/A
#INCHI_AUX N/A
#Library_Class 3
#SpectrumID CCMSLIB00000005222
#IonMode Positive
#UpdateWorkflowName UPDATE-SINGLE-ANNOTATED-BRONZE
#LibraryQualityString Bronze
#TaskID d19310cd93df49b68e9fcbec27720eb5
##Scan# 3
#SpectrumFile TriamcinoloneAcetonide.mgf
#LibraryName fda_library.mgf
#MQScore -1
#Organism fda_library
#TIC_Query 0
#RT_Query -1
#MZErrorPPM -1
#SharedPeaks 0
#MassDiff 0
#LibMZ -1
#SpecMZ 435.218
#SpecCharge 0
#internalFilename spec-00000.mgf

>collision 10
101.023079 36.053921
103.05265 27.09314
105.030785 54.121319
105.070526 365.824097
105.429443 11.35538
107.047028 27.67605
107.085838 100.4589
107.340599 10.19669
108.130699 13.85714
109.026955 20.712959
109.065018 144.969696
109.406654 11.38021
110.358238 29.890499
110.967682 15.28898
111.040878 92.448227
111.080994 59.284931
113.054344 57.790939
114.394791 23.41984
115.039864 78.186096
117.068321 200.251404
119.047417 20.25037
119.087524 27.31752
120.444763 17.55197
120.899498 29.6362
120.931541 36.612659
121.064255 1179.854004
121.147736 14.7036
121.179756 13.38182
121.301033 16.578819
121.550758 13.51607
121.604187 10.8
121.67289 14.39286
123.042229 100.426003
123.057106 30.25
123.077827 58.697208
124.35202 13.94723
125.058838 55.6413
127.076279 55.220242
128.060059 44.729351
128.264343 10.26786
129.072021 100.422699
131.048538 39.272049
131.084808 277.632996
133.063187 178.585297
133.099213 63.660938
134.436203 14.10256
135.044983 28.42614
135.079926 302.338806
135.099579 10.26042
137.059128 116.801201
137.074722 66.201691
139.070129 18.2915
139.525558 14.37397
142.076492 109.936302
142.446274 10.69669
143.084473 204.472
144.057739 58.892872
144.30159 12.28403
145.066589 382.343903
145.096924 56.45718
145.405594 11.61875
145.631622 10.00216
147.043808 12.05125
147.07933 802.316772
147.26918 10.01667
147.358444 15.35166
147.844055 11.00941
151.038345 39.299381
151.072922 144.823502
153.05014 46.50938
153.071136 103.571999
153.08847 12.55625
155.084717 160.863907
155.170227 11.22917
157.064102 43.320011
157.097748 12.54018
157.580322 10.00073
158.070847 138.987396
158.288589 17.964911
159.080063 854.829102
159.175476 12.03327
159.260788 10.07031
159.520065 13.83728
159.91217 10.50625
161.058426 187.106201
161.097076 186.753601
163.072281 65.542419
163.237534 13.26324
165.066086 35.178711
165.08606 45.558899
167.083328 44.813629
169.064789 70.009148
169.103073 121.382599
169.503143 15.75048
170.068268 32.75
170.108932 54.141529
171.079269 830.317017
171.129623 32.318062
171.232101 14.79348
172.086899 111.124901
173.095184 619.018127
173.368668 19.016121
173.487885 14.58125
173.523148 10.02941
174.079437 12.05048
175.076218 22.83794
175.088272 42.73476
178.075394 18.362881
179.082092 115.637604
180.091965 120.9263
181.060562 13.16506
181.100067 126.034698
182.071564 56.052269
182.107758 98.316727
182.354874 11.00531
183.081711 76.493332
184.085938 71.406937
185.094009 240.380295
185.24379 13.81223
187.074326 315.703094
187.093628 26.81612
187.10762 41.588131
187.663971 11.51442
190.078613 23.781891
191.083237 57.300739
192.091263 130.7005
193.102203 160.9151
195.079819 211.913605
195.11647 52.666222
196.085388 142.266907
197.096878 493.732208
197.13121 241.601395
197.815628 15.29602
199.07341 38.28125
199.108673 286.170013
199.155334 12.22094
199.31839 18.69231
201.090103 32.654518
203.088318 163.814499
206.108948 54.155231
206.580643 11.09632
206.690659 14.5
207.11496 225.003296
208.086411 60.560398
209.093948 341.709106
209.13092 97.504608
209.360031 20.75523
210.102661 676.783325
210.44545 17.94453
211.920029 20.01646
212.118576 75.473381
213.127838 1239.562988
213.308136 10.18858
215.082336 139.278397
215.1418 60.0527
217.1017 56.567051
218.106781 58.486351
219.078735 210.145905
219.113617 107.221199
219.161804 12.75521
219.22908 12.30179
219.864914 12.80804
220.143494 11.20069
221.095856 153.730804
221.133514 81.433952
221.335678 11.09602
222.10347 233.189102
222.143845 36.1045
222.159363 12.62348
223.111786 446.902588
223.83754 14.88095
224.119492 171.570404
225.090942 115.259598
225.126221 599.237
225.479904 14.0
225.8134 11.10336
225.980682 15.39583
227.10408 114.232803
227.146347 46.23518
227.275269 11.00893
229.084595 28.32201
229.103882 33.119888
230.108185 91.312943
231.309662 18.944639
232.126144 80.879433
233.096115 194.163803
234.027481 10.0525
235.111786 291.255798
235.145691 132.221603
236.114899 128.168701
236.379059 16.311729
237.097107 48.317791
237.126114 345.802704
237.526093 20.023809
238.019333 22.59091
238.093689 22.948219
238.573349 11.22784
239.110596 12.6019
239.142334 127.777901
241.090668 15.07414
241.120132 17.95833
241.154465 18.430441
243.112976 82.567596
244.759995 13.66331
245.095764 113.108902
245.130249 100.391701
246.105286 114.433502
247.111313 117.372803
247.142395 17.66139
248.117615 387.631592
249.09166 38.633202
249.126328 159.331894
250.012619 15.9105
250.106461 20.267599
250.1306 101.269897
251.103653 114.238503
251.141083 362.888489
251.522629 10.01645
252.239868 12.28204
253.121201 247.9664
253.15921 196.364807
255.136032 17.51042
257.122894 22.28125
257.140961 22.52009
259.110138 93.098396
259.148132 14.8725
260.118469 138.030701
261.091797 15.46146
261.123108 118.585999
262.133972 142.547699
263.106506 17.276859
263.142883 570.028381
263.241486 23.579
263.37207 12.06034
264.079956 55.539101
264.112579 61.525871
265.116272 55.862572
265.156464 159.068893
265.498901 12.07654
266.787231 11.50862
267.139618 141.771393
269.090027 33.62532
270.102325 62.630341
272.102936 16.46875
273.125641 10.21053
273.363708 13.76371
274.094391 36.805882
275.079895 13.00033
275.109344 63.91679
275.139435 202.570694
275.317963 23.095051
275.732422 12.39005
276.105164 33.88464
276.928101 12.0142
278.127838 49.390129
279.100464 40.69038
279.14621 17.787399
280.140472 43.40836
281.153809 116.5728
281.637299 10.27344
282.136597 13.4088
282.408508 17.3617
283.168915 31.256559
284.11322 25.31221
285.131165 50.731659
288.118713 129.155502
291.133789 74.177048
293.154205 76.151489
295.129913 49.505001
296.029877 16.220869
299.159393 20.349251
301.156158 22.42215
303.135406 68.08654
311.129547 21.20125
311.159668 20.50625
321.148529 23.9569
339.735748 11.42857
599.737976 12.33471
984.183105 49.525509
