>compound cyclo(L-Leu-L-Pro)
>formula C11H18N2O2 
>ionization [M+H]+
>parentmass 211.144028
#inchi InChI=1S/C11H18N2O2/c1-7(2)6-8-11(15)13-5-3-4-9(13)10(14)12-8/h7-9H,3-6H2,1-2H3,(H,12,14)
#inchikey SZJNCZMRZAUNQT
#Ion_Source DI-ESI
#Instrument qTof
#Compound_Source Isolated
#PI Keyzers
#Data_Collector R Keyzers
#Scan -1
#Precursor_MZ 211.145
#ExactMass 210.137
#Charge 1
#CAS_Number 2873-36-1
#Pubmed_ID N/A
#Smiles N/A
#INCHI_AUX N/A
#Library_Class 3
#SpectrumID CCMSLIB00000007048
#IonMode Positive
#UpdateWorkflowName UPDATE-SINGLE-ANNOTATED-BRONZE
#LibraryQualityString Bronze
#TaskID 76b66bf1ccd04cec9993212b36387ea3
##Scan# 3
#SpectrumFile CDB02_35I_pos_MSMS_003_2.mgf
#LibraryName gnps_library.mgf
#MQScore -1
#Organism test_rob_keyzers
#TIC_Query 0
#RT_Query -1
#MZErrorPPM -1
#SharedPeaks 0
#MassDiff 0
#LibMZ -1
#SpecMZ 211.145
#SpecCharge 0
#internalFilename spec-00000.mgf

>collision 10
41.038353 108.094704
43.020119 108.2481
43.054352 142.256393
44.050171 123.134399
45.034126 1102.170044
58.031612 40.090912
59.046692 191.557098
70.065971 10721.580078
70.140724 155.699997
70.161575 38.01923
70.395073 61.666672
71.066444 498.440186
72.044678 455.224609
80.55526 82.13636
82.0606 97.599998
83.448006 42.23077
86.097435 3248.702881
86.16256 45.041672
86.183456 50.833328
87.042427 42.211208
87.076897 94.610001
87.101273 46.099998
87.333412 40.75
89.059998 905.548218
94.063965 497.473297
95.086807 116.153801
98.061462 763.446411
100.071098 158.421097
107.075378 203.149994
109.101562 64.80278
110.065376 78.026161
111.052368 124.290298
111.087967 144.484802
114.090919 1269.359985
119.061546 112.510201
121.060921 95.408333
125.071869 96.510406
127.086128 819.553772
128.954193 269.004791
133.08699 463.042389
135.117889 92.240387
138.126663 808.306702
139.129669 286.563599
143.353851 45.066669
150.125153 65.355392
151.088684 219.778595
155.152771 527.806274
165.132523 52.003792
165.994904 45.90086
166.12001 162.137894
167.144897 203.270294
169.04216 102.054802
169.09111 89.640152
171.004669 54.470589
172.60437 151.878098
175.139832 133.025604
177.10791 101.343803
181.141861 61.111839
183.018326 65.0
183.149765 3044.139893
183.274261 45.5984
184.019028 45.25
184.153793 231.066605
194.11235 451.551086
195.121292 949.163513
209.136154 38.164471
210.026764 59.875
210.099731 196.603607
210.137924 163.358002
211.058914 48.197578
211.144028 36503.550781
211.491699 101.015099
211.574051 119.125
211.6978 78.041656
211.810608 38.789761
211.892014 40.658779
212.013062 41.861679
212.066467 68.405029
212.144806 3507.729004
212.35556 55.285709
212.424103 66.003571
212.540161 50.48761
212.659286 67.002449
212.708832 48.083328
212.834595 42.160709
213.107788 75.455643
213.299683 40.2663
213.753235 40.107761
214.090408 131.086304
322.174011 75.367653
400.864441 104.297501
415.234406 53.174999
572.681335 45.23077
583.294067 39.015629
602.234558 48.96196
607.168579 48.115742
662.911621 47.150002
792.522278 39.01786
802.521545 43.595589
829.334412 39.55682
