>compound Marineosin A
>formula C25H35N3O2 
>ionization [M+H]+
>parentmass 410.2802038120906
#inchi InChI=1S/C25H35N3O2/c1-17-15-18-9-6-4-3-5-7-10-19-12-13-21(27-19)24(18)25(30-17)23(29-2)16-22(28-25)20-11-8-14-26-20/h8,11-14,17-18,23-24,27-28H,3-7,9-10,15-16H2,1-2H3/b22-20-/t17-,18-,23+,24-,25-/m0/s1
#inchikey VCQKVUNLUXMOER
#Ion_Source LC-ESI
#Instrument qTof
#Compound_Source Isolated
#PI Fenical-Jensen-Moore
#Data_Collector Max
#Scan -1
#Precursor_MZ 410.282
#ExactMass 409.274
#Charge 1
#CAS_Number N/A
#Pubmed_ID N/A
#Smiles N/A
#INCHI_AUX N/A
#Library_Class 1
#SpectrumID CCMSLIB00000001623
#IonMode Positive
#UpdateWorkflowName UPDATE-SINGLE-ANNOTATED-GOLD
#LibraryQualityString Gold
#TaskID d14a5843653040ba9fa2c4376f2be358
##Scan# 1
#SpectrumFile d3.mgf
#LibraryName gnps_library.mgf
#MQScore -1
#Organism gnps_library
#TIC_Query 0
#RT_Query -1
#MZErrorPPM -1
#SharedPeaks 0
#MassDiff 0
#LibMZ -1
#SpecMZ 410.282
#SpecCharge 0
#internalFilename spec-00000.mgf

>collision 10
55.055779 1150.256958
67.05545 1581.718994
68.050934 2196.043945
69.070503 862.376587
79.055313 1205.958008
80.050644 20418.660156
81.067696 2815.780029
82.067673 1022.0
91.05513 1383.030029
92.050735 2378.254883
93.055679 2037.009033
94.066032 7525.575195
95.062317 7259.898926
95.083267 3726.037109
96.073059 1159.358032
105.070328 1103.967041
106.06649 2893.718994
107.083038 1512.259033
108.081612 1955.593994
109.0784 1000.400024
109.099129 975.96283
110.063309 707.496521
110.097191 1216.291992
117.068291 1359.008057
118.066528 1619.328003
119.080177 1446.743042
120.081467 7209.056152
121.089943 1677.91394
122.097145 2198.481934
125.071877 2251.311035
129.070663 1109.620972
130.06636 2094.683105
131.078171 1857.43396
132.079361 2276.375977
133.089142 1488.771973
134.096924 6163.243164
135.104614 1026.435059
136.112717 1578.192017
141.070816 749.886719
143.084412 1342.041992
144.081726 1800.541992
145.087631 2709.110107
146.094681 3609.36499
147.057007 3436.368896
147.106064 1230.972046
148.066193 1032.871948
148.112625 4383.424805
149.072006 2860.979004
149.119476 968.500305
151.087265 1698.19104
155.085022 714.931396
157.100861 2049.889893
158.098297 1700.072021
159.057037 2359.887939
159.113007 2047.213989
160.071579 898.284973
160.113022 2431.280029
161.072266 4713.431152
161.120712 1067.96106
162.080307 1273.453979
162.127914 2053.458008
163.087204 11487.400391
163.146591 2539.177979
164.09166 3037.177002
170.096786 705.885925
171.115891 2864.754883
172.076859 700.96582
172.11438 1510.745972
173.076096 1573.609009
173.121307 830.359375
174.089584 1602.892944
174.126556 1885.983032
175.090897 1003.327026
176.144226 1999.248047
179.082031 5742.060059
180.086777 1606.862061
183.116196 1470.98999
184.112854 735.593323
185.11586 978.522522
186.093689 5015.89502
187.094238 1516.937012
187.141144 1049.150024
188.1436 4011.522949
189.150818 1307.130981
190.159775 22142.199219
191.082382 2686.14209
191.162827 4147.625977
197.102493 763.942383
200.143997 15392.860352
201.105652 707.78717
201.153229 3865.879883
202.160263 2217.379883
211.114273 803.429626
212.137939 736.682129
213.113647 756.935181
213.164215 3787.385986
214.16394 1359.442017
216.175125 1292.719971
218.191208 3548.090088
219.194199 838.293396
223.108582 816.300415
226.157425 758.367188
228.139618 93564.929688
229.143219 19682.289062
230.191162 649130.375
230.331635 31188.650391
231.195038 159550.09375
232.205383 57179.941406
233.210022 11048.790039
234.213318 1071.220947
242.191132 7487.832031
243.193863 1769.920044
244.175583 2685.641113
245.176346 1056.506958
246.186386 12875.780273
247.189987 3048.351074
248.201843 7868.105957
249.205658 1948.042969
252.171783 862.851318
258.213867 1439.504028
260.165985 40447.898438
261.169281 8802.941406
262.171234 1095.642944
268.205383 951.016296
269.168823 1008.880005
270.186829 143834.40625
271.190063 34022.128906
272.193878 3716.524902
274.217224 2281.290039
284.202423 3342.344971
285.203827 1800.968994
286.217865 18034.029297
287.220215 9904.041992
288.2229 1702.881958
291.186005 778.106384
294.189575 886.315308
302.212799 696121.1875
303.21637 190860.296875
304.219391 22296.490234
305.220978 1431.098999
311.213531 4249.027832
312.217499 1731.626953
317.206909 782.948181
318.236237 1915.92395
319.183777 6747.926758
319.235748 3559.208008
320.201233 3116.172119
321.214264 1241.630981
326.213623 877.183716
333.234344 2406.832031
334.231812 3983.556885
335.235535 2103.759033
336.209137 26121.689453
337.21405 12496.05957
338.218994 2437.525879
343.230499 1272.071045
344.222992 741.717773
350.255402 1798.86499
351.252014 938.858887
352.240479 726.447571
360.244965 12354.959961
361.230774 87605.421875
362.233917 38573.328125
363.237213 6985.323242
368.235474 2367.243896
369.239594 1260.672974
378.255798 370917.3125
379.260223 195731.5
380.264038 38310.910156
381.267029 4098.544922
392.271484 3991.702881
393.260315 7722.803223
394.261566 3426.13208
395.263 731.307983
410.282379 165659.90625
411.286835 91412.546875
412.289307 20707.630859
413.291077 2588.466064
