>compound MitoxantroneHCl
>formula C22H28N4O6 
>ionization [M+H]+
>parentmass 445.21
#inchi InChI=1S/C22H28N4O6/c27-11-9-23-5-7-25-13-1-2-14(26-8-6-24-10-12-28)18-17(13)21(31)19-15(29)3-4-16(30)20(19)22(18)32/h1-4,23-30H,5-12H2
#inchikey KKZJGLLVHKMTCM
#Ion_Source LC-ESI
#Instrument qTof
#Compound_Source Isolated
#PI Sirenas
#Data_Collector Ed Esquenazi 
#Scan -1
#Precursor_MZ 445.21
#ExactMass 0.0
#Charge 1
#CAS_Number N/A
#Pubmed_ID N/A
#Smiles N/A
#INCHI_AUX N/A
#Library_Class 3
#SpectrumID CCMSLIB00000005213
#IonMode Positive
#UpdateWorkflowName UPDATE-SINGLE-ANNOTATED-BRONZE
#LibraryQualityString Bronze
#TaskID d19310cd93df49b68e9fcbec27720eb5
##Scan# 3
#SpectrumFile MitoxantroneHCl.mgf
#LibraryName fda_library.mgf
#MQScore -1
#Organism fda_library
#TIC_Query 0
#RT_Query -1
#MZErrorPPM -1
#SharedPeaks 0
#MassDiff 0
#LibMZ -1
#SpecMZ 445.21
#SpecCharge 0
#internalFilename spec-00000.mgf

>collision 10
100.894371 31.001261
107.064171 29.891029
121.029434 67.425926
123.004456 21.0336
123.112648 6.335318
130.051239 17.66231
130.063339 2.083333
131.060608 23.67581
133.077362 119.039398
138.294952 12.70588
144.04483 16.83675
144.082062 20.044451
144.257294 10.34667
145.050781 40.703899
145.086304 24.5735
145.360779 7.218137
154.062943 26.459999
154.308472 8.666667
156.041733 26.349871
156.085373 3.0
156.16864 6.388889
157.075699 21.000641
158.083237 153.248596
158.235321 13.71078
158.333954 12.04167
159.052673 14.875
159.090576 156.766205
159.142639 6.013889
160.093536 49.882351
161.069427 171.002304
161.404205 6.458333
162.880234 22.771931
164.658005 14.48563
164.930435 16.426769
166.065994 15.42188
171.048843 3.003205
174.098312 29.793329
174.115631 18.687929
181.074661 116.237198
182.057205 78.570763
183.062897 38.71627
183.094086 88.372307
183.149017 3.688725
183.544891 16.20577
184.139053 4.335
184.486191 14.91667
185.066132 44.520351
187.087616 104.723503
187.115646 9.001068
192.072418 26.82688
196.077805 52.016319
198.072693 43.479729
199.035324 26.703791
199.059372 11.70076
199.083206 88.830528
199.255753 7.001016
202.049728 31.34783
202.872498 3.926282
204.370758 13.37083
205.052704 16.258801
205.072952 14.06187
206.053329 57.898499
208.0728 23.0151
208.094376 3.560185
209.068008 30.054489
210.052567 42.92157
210.08902 22.263889
212.066406 41.052158
213.065491 36.345039
213.095779 16.97711
219.094467 12.81333
221.878296 6.069445
222.053909 39.116661
222.084213 50.4622
223.088135 46.088821
224.071106 111.5532
224.096695 53.714279
224.274033 9.075
226.279129 4.120098
227.143402 5.0
228.262115 11.63516
229.080307 47.585381
230.126297 20.51306
230.178772 5.391026
230.643524 4.0
231.058167 26.270269
231.09375 105.911201
231.166809 3.0
233.553177 4.083333
235.083603 28.63435
235.230988 8.102564
236.069748 55.350819
237.060638 46.921322
237.075348 24.0
237.105133 60.059368
238.04837 87.676048
238.063568 25.17083
238.08342 15.7037
239.059265 107.6884
239.079178 43.875
239.120819 18.530741
239.214706 11.70833
239.514114 13.78125
240.063797 127.036797
241.062164 212.904999
241.096527 186.587799
241.438004 2.444444
246.049957 42.185181
248.002563 14.11935
248.072601 267.33609
248.128204 2.0
248.413635 6.672619
249.104919 23.94836
249.3564 6.125
249.650223 12.60417
250.645309 11.95076
251.052277 49.50967
251.079773 254.832199
251.1241 2.672619
251.300629 7.044117
251.323135 9.916667
251.802734 23.667101
252.067215 170.188507
252.531952 7.130208
252.747604 6.728535
252.777603 8.506945
253.06189 219.442307
253.0914 106.404198
253.120102 4.741667
253.323135 2.336539
254.072266 217.105301
254.148819 2.347222
254.176788 4.531863
254.670425 8.4375
254.875046 8.375
255.052933 141.564102
255.076889 1118.677002
255.142548 4.333333
255.186996 2.333333
255.292603 10.02126
255.365631 41.379299
255.381546 6.095238
255.459457 12.02899
255.531677 5.0625
255.665314 5.208333
255.748856 10.45333
255.978882 6.927083
256.060883 304.750214
256.161133 8.416667
256.523682 25.17721
256.79007 31.691669
257.193024 2.408333
258.795288 18.234501
258.845673 5.0625
259.088226 42.753941
260.064484 68.759521
261.078003 232.720001
261.108093 52.104462
261.142487 5.933333
261.376099 9.419871
261.488525 6.454545
262.104706 77.706673
262.17511 4.440476
262.231323 8.672619
263.061462 17.26844
263.380249 8.240079
263.641998 6.482143
264.065216 1399.707031
264.467621 6.98077
265.092377 24.43841
265.214691 1.672619
265.26059 4.125
265.339386 10.00417
265.453217 4.225
265.571716 24.51845
266.042236 18.68182
266.100983 15.92708
266.138977 2.0
266.41095 18.63644
266.50827 35.728031
266.780701 50.994068
266.973907 28.44042
267.022766 28.686331
267.053375 81.522011
267.07663 1495.896973
267.115295 105.365402
267.142059 8.666667
267.189941 11.70238
267.213226 19.740801
267.258179 1.666667
267.374023 12.69611
267.394379 14.0336
267.424957 13.81349
267.583466 23.142241
267.684357 13.89352
267.831146 6.336111
268.095703 24.86002
268.510712 10.70525
268.761749 8.843137
269.055664 883.472412
269.093719 523.723877
269.133698 2.347222
269.158508 2.0
269.332825 5.0
269.364929 5.926282
269.398041 1.833333
269.465637 22.935801
269.495911 4.721154
269.560791 5.019737
269.61792 11.39708
269.675598 4.783333
269.923309 12.2549
269.954987 27.36602
270.074738 350.816711
270.264587 19.17502
270.696869 16.26535
270.807648 12.55408
271.019592 24.01894
271.07254 960.046082
271.391663 15.02959
271.426056 3.666667
271.492096 3.125
271.563629 7.369253
271.600067 12.92045
271.649628 13.4064
274.006287 3.675
274.70694 17.49662
274.904694 6.0
275.083954 402.686401
275.684174 19.712641
275.735901 8.810714
276.070343 123.129799
276.493622 12.18673
276.52771 21.75
276.650848 7.523551
276.713013 8.242816
277.063599 114.1007
277.092438 184.570496
277.193939 9.796296
277.440277 13.80365
277.490051 17.061359
277.516052 44.34642
277.666626 31.14822
278.080963 475.574188
278.126434 13.11484
278.144318 3.760417
278.18042 28.76688
278.254547 10.07018
278.653687 6.891666
278.752563 17.909479
278.794495 12.49223
278.85788 35.927158
278.994629 51.195091
279.046326 38.940411
279.076111 5489.450195
279.148956 16.152309
279.212128 22.31201
279.251678 14.25725
279.292572 22.43742
279.31604 42.701248
279.391968 9.791667
279.442963 19.33452
279.473114 51.449711
279.552307 11.17832
279.623718 7.852757
279.736328 3.342592
280.060486 1567.984985
280.133331 30.193081
280.149811 16.52301
280.270752 3.816667
280.300995 24.721741
280.339874 23.272289
280.42041 4.041667
280.486359 21.64646
280.577209 24.8529
280.647003 19.82126
280.670288 4.815476
280.713043 5.669445
280.898804 21.10043
281.089844 689.241211
281.273834 7.148148
281.36084 62.329472
281.402191 24.160721
281.415833 7.280303
281.446808 5.875
281.480927 35.16301
281.513397 2.675
281.57132 16.319901
281.630707 26.53356
281.67157 4.166667
281.789886 28.752081
281.834137 50.910488
281.881653 10.09643
281.965393 16.615391
282.208832 7.162634
282.238068 5.068182
282.337433 7.371913
282.378357 9.335
282.402466 13.87321
282.442657 18.4221
282.542053 9.353758
282.618073 4.44079
282.670776 19.41667
282.699951 7.667635
282.723358 2.337121
282.770386 22.647221
282.992493 6.033602
283.02182 12.40333
283.072052 12071.150391
283.143036 91.247353
283.171875 21.552349
283.230865 61.770748
283.263306 60.557941
283.309937 73.003723
283.340302 42.62159
283.377319 42.158829
283.419983 12.71605
283.445221 24.117399
283.464203 21.143749
283.509827 54.909199
283.527435 11.03716
283.549591 12.135
283.585724 37.900799
283.60141 16.743139
283.627716 18.961599
283.675781 23.860121
283.691711 29.48867
283.794861 2.4
283.909607 29.313669
283.943359 20.67082
283.988281 7.337963
284.047333 38.799519
284.203339 3.640152
284.281158 17.95376
284.395294 18.986111
284.421051 30.371519
284.464172 14.47153
284.526062 7.761364
284.574829 2.367424
284.662872 2.347222
284.858215 7.75
284.936584 14.33452
285.085602 1021.512024
285.195709 25.197701
285.256012 9.057971
285.273743 10.32143
285.373474 8.694445
285.574097 4.523809
285.642303 13.1859
285.947388 6.469444
286.138062 8.007576
286.256592 4.891667
286.538391 6.880952
286.903564 9.395202
287.345703 7.520833
287.369537 4.531863
287.421692 7.306159
287.534424 6.025641
287.658325 5.673077
287.74057 5.671297
287.910156 5.510417
288.06015 23.77527
288.089966 255.938095
289.03476 3.0
290.066467 113.386902
290.349274 8.350877
290.384155 12.98333
290.76532 18.07
290.995758 6.354167
291.07428 115.231201
291.109558 36.23761
291.326233 6.777778
291.353638 22.55455
291.409363 3.440476
291.502563 9.149692
292.077087 63.959122
292.101959 20.91667
292.142273 4.0
293.092438 1270.921997
293.171844 7.383333
293.22403 14.15705
293.259186 25.702299
293.286407 14.22685
293.38385 13.70525
293.448059 4.266667
293.551453 8.703947
293.577057 10.78392
293.64859 6.339743
293.690704 15.6875
293.987305 27.434731
294.072052 53.0
294.298737 7.683333
294.370361 6.005208
294.430389 16.930969
294.633057 8.745155
295.032898 69.491074
295.07196 3424.209961
295.106964 124.330902
295.152588 3.694444
295.19165 6.75
295.238434 8.5
295.269379 64.649498
295.303131 37.439678
295.326141 19.492229
295.370026 9.819444
295.391205 21.00555
295.433197 10.85227
295.463562 6.388158
295.48819 10.67045
295.583282 3.727941
295.65506 9.789634
295.726868 14.00278
295.962921 41.883991
296.13443 8.160714
296.158508 8.416667
296.247559 29.101601
296.339447 58.036469
296.422394 49.89402
296.494019 23.45315
296.548462 19.816669
296.603943 26.00926
296.672852 7.675388
296.704193 7.013889
296.870026 12.4386
297.008881 70.399467
297.035614 86.415894
297.088104 7956.387207
297.160797 52.170479
297.187683 8.166667
297.225983 34.163631
297.272369 4.666667
297.290344 17.831539
297.32074 22.15238
297.365143 44.763378
297.398285 14.39394
297.448425 10.6299
297.464386 19.34936
297.575653 30.473829
297.635956 5.973485
297.675171 51.750252
297.704498 12.81667
297.74173 36.193272
297.770416 5.334677
297.81366 38.00045
297.890503 29.0947
297.926483 51.35434
297.991577 21.655701
298.208832 35.0909
298.281464 26.274561
298.338959 11.22917
298.509827 16.02206
298.576172 18.373461
298.948181 24.28204
299.657562 4.708333
300.207642 6.440476
300.508759 5.469444
300.827057 4.375
300.972961 15.83681
301.335419 7.347222
301.917328 6.25926
302.051453 6.933333
302.20517 9.456301
302.931 5.906746
303.081238 61.23246
303.100586 13.903
303.155609 21.705879
303.561249 34.26268
303.840271 17.959351
303.943359 8.782407
304.081757 68.211159
304.38623 4.028846
304.490784 26.586691
304.701965 8.491228
305.020691 57.800362
305.092377 3556.52002
305.158234 5.675
305.182922 3.416667
305.249603 3.027778
305.279968 17.874519
305.325043 17.477381
305.365021 12.03157
305.400726 7.693376
305.419464 16.7787
305.437195 20.35729
305.485413 26.947559
305.540588 14.31144
305.704773 7.670834
305.741211 2.761364
306.25946 28.19982
306.289001 11.55556
306.326202 17.16964
306.544098 8.748563
306.575226 6.341667
306.715332 13.46944
306.809784 3.166667
306.910339 4.349638
307.126099 9.151515
307.515411 7.190217
308.032806 11.33889
308.070374 70.724998
308.201172 29.30525
308.362549 3.337121
308.379608 5.761364
308.515381 9.32545
308.735321 2.666667
308.759766 5.341667
309.089752 525.406494
309.275879 30.084511
309.309021 7.740942
309.332916 2.777778
310.134277 31.694441
310.153778 5.371913
310.523193 2.449074
310.822601 3.008333
311.102386 778.558472
311.351807 4.963235
311.474304 34.179489
312.075745 5.121212
312.295135 15.27273
313.074432 37.873402
314.119324 15.45333
315.097961 73.589394
319.002197 7.410257
319.071381 50.67416
319.115295 24.206671
319.351166 4.345238
320.096039 13.125
320.309784 4.166667
320.459076 7.670455
320.803925 7.008333
321.000305 14.41177
321.088531 72.981102
321.107422 41.064602
321.156616 23.652901
321.19989 8.323276
321.268097 21.26882
321.30658 28.19577
321.381104 7.335
321.462158 10.66667
321.487122 29.7929
321.625885 20.519609
322.095947 597.5448
322.192505 29.949921
322.242981 4.066667
322.392792 11.6864
322.664001 5.541667
322.71814 3.802778
322.854614 18.684959
322.908691 24.98485
323.102417 3114.906982
323.241425 12.36742
323.275757 19.341009
323.298889 4.440476
323.44812 2.782408
323.480011 9.667735
323.537231 25.68759
323.579041 31.15019
323.661469 13.3346
323.801392 23.48781
323.849304 17.013201
323.892456 2.720238
323.924438 12.68519
323.955719 2.683333
324.168701 16.00798
324.749207 4.306818
326.118347 9.177631
326.391571 29.55872
331.107025 18.73485
336.326538 5.296568
338.119049 261.129486
339.228302 4.674242
340.119629 17.00119
341.110535 161.932602
349.117065 36.6362
351.381317 4.120098
356.121399 104.119698
358.12973 95.904297
366.136932 43.39151
367.113281 12.04167
370.373444 4.680556
371.139038 26.94231
383.63855 11.42976
384.156494 165.957397
403.200439 14.21894
445.222321 14.83333
519.157715 5.76923
538.834778 22.15476
1001.574158 4.351191
1407.384644 7.429762
