>compound MLS001240277-01!Isonicotinic acid but-2-enylidene-hydrazide
>formula C10H11N3O
>ionization [M+H]+
>parentmass 190.097961
#inchi InChI=1S/C10H11N3O/c1-2-3-6-12-13-10(14)9-4-7-11-8-5-9/h2-8H,1H3,(H,13,14)/b3-2+,12-6?
#inchikey YLWYNCPRXFCNLQ
#Ion_Source LC-ESI
#Instrument qTof
#Compound_Source NIH Pharmacologically Active Library
#PI Dorrestein
#Data_Collector VP/LMS
#Scan -1
#Precursor_MZ 190.101
#ExactMass 189.09
#Charge 1
#CAS_Number N/A
#Pubmed_ID N/A
#Smiles C/C=C/C=NNC(=O)c1ccncc1
#INCHI_AUX N/A
#Library_Class 1
#SpectrumID CCMSLIB00000086043
#IonMode Positive
#UpdateWorkflowName UPDATE-SINGLE-ANNOTATED-GOLD
#LibraryQualityString Gold
#TaskID d252d724072548979f1f6f1ced849daf
##Scan# 1109
#SpectrumFile p5-C02_GC2_01_18447.mzXML
#LibraryName Pharm_Active_Library.mgf
#MQScore -1
#Organism Pharm_Active_Library
#TIC_Query 0
#RT_Query -1
#MZErrorPPM -1
#SharedPeaks 0
#MassDiff 0
#LibMZ -1
#SpecMZ 190.101
#SpecCharge 0
#internalFilename spec-00000.mgf

>collision 10
44.888462 136.0
45.968307 196.0
47.770893 56.0
48.46394 152.0
48.753952 156.0
48.809555 212.0
51.418674 192.0
51.66444 184.0
51.827652 208.0
54.491688 116.0
55.7313 132.0
56.478172 236.0
57.049477 108.0
57.504368 160.0
58.19009 216.0
58.590065 48.0
58.792858 176.0
59.44936 204.0
60.10025 44.0
61.461025 156.0
62.027153 208.0
64.156509 144.0
64.253792 180.0
64.440582 180.0
65.143875 56.0
67.616631 204.0
68.246536 120.0
68.722527 184.0
69.102531 152.0
69.312813 72.0
70.636368 88.0
71.359146 184.0
72.586662 228.0
73.82122 228.0
74.110497 36.0
74.295654 180.0
75.825096 160.0
75.998505 216.0
76.72374 160.0
77.216141 208.0
77.233635 208.0
77.943642 132.0
78.536911 132.0
80.146599 164.0
80.264236 180.0
80.531921 212.0
83.972115 180.0
85.128716 172.0
86.250702 216.0
88.120193 100.0
88.249153 56.0
89.483688 136.0
90.055054 184.0
90.474838 216.0
91.471443 220.0
91.545692 228.0
92.576889 180.0
93.04435 204.0
93.244499 148.0
93.348305 64.0
93.631195 104.0
94.055359 124.0
94.631432 136.0
95.062576 144.0
95.683708 196.0
96.052017 164.0
98.869507 188.0
100.740494 312.0
100.792442 68.0
102.905434 212.0
103.030647 104.0
103.058929 224.0
104.031044 132.0
105.045662 5752.0
105.117874 52.0
105.156647 44.0
105.651131 180.0
105.70433 48.0
105.718651 48.0
105.954117 32.0
106.049629 348.0
106.091423 56.0
106.138573 68.0
106.799843 160.0
106.834808 160.0
106.882133 104.0
106.927406 92.0
107.046806 160.0
107.223969 136.0
107.438408 40.0
107.686104 120.0
107.87413 60.0
108.735771 84.0
109.30101 180.0
114.08812 216.0
114.94857 124.0
117.059303 252.0
118.067787 160.0
118.704445 48.0
119.027756 100.0
119.0625 168.0
119.149384 112.0
120.055794 280.0
120.220642 104.0
120.589722 188.0
120.867447 204.0
121.040436 3892.0
121.134544 44.0
121.154259 72.0
121.314232 84.0
121.404121 48.0
122.045845 392.0
123.055733 1032.0
123.085312 60.0
124.060997 156.0
130.068619 168.0
132.080612 156.0
137.033752 292.0
144.075241 120.0
145.078293 140.0
146.069687 224.0
156.056091 164.0
160.029282 172.0
160.109848 184.0
160.291229 108.0
163.087692 36.0
173.061813 164.0
190.097961 320.0
206.876068 128.0
270.104126 92.0
293.090698 120.0
325.082245 80.0
333.886078 84.0
504.203583 48.0
844.936829 140.0
943.193054 192.0
949.855042 152.0
955.974243 164.0
958.468079 168.0
974.424866 212.0
1012.849304 148.0
1018.9328 236.0
1023.690369 112.0
1028.11438 172.0
1038.683838 132.0
1063.305054 164.0
1079.938232 156.0
1087.91272 196.0
1104.432251 152.0
1127.957275 152.0
1146.488037 204.0
1146.541992 88.0
1153.297729 200.0
1154.230713 104.0
1171.203613 196.0
1173.091064 176.0
1178.537109 136.0
1181.251099 148.0
1188.204346 196.0
1192.75708 160.0
1199.971558 172.0
1206.543945 128.0
1213.883057 76.0
1214.645996 156.0
1222.399292 224.0
1228.202515 196.0
1231.587769 240.0
1233.075928 188.0
1237.930908 84.0
1253.567627 184.0
1265.094116 200.0
1272.360474 200.0
1273.553467 220.0
1276.140137 96.0
1279.4198 180.0
1310.062988 168.0
1316.604858 156.0
1318.938477 180.0
1322.062866 84.0
1325.502563 84.0
1326.444702 52.0
1342.198853 232.0
1348.250244 176.0
1352.470215 176.0
1356.234985 136.0
1359.615967 168.0
1362.016846 160.0
1364.48584 196.0
1370.071533 160.0
1376.466064 92.0
1384.289429 156.0
1392.157104 156.0
1392.580444 168.0
1402.543091 172.0
1419.57373 176.0
1421.764282 140.0
1422.582397 120.0
1428.059937 236.0
1432.177002 116.0
1442.015381 116.0
1443.262695 124.0
1444.155029 60.0
1482.104492 160.0
1486.04541 140.0
1488.117676 116.0
1488.409424 208.0
1492.204956 84.0
1501.074829 212.0
1501.128784 148.0
