>compound Ramelteon
>formula C16H21NO2 
>ionization [M+H]+
>parentmass 260.164734
#inchi InChI=1S/C16H21NO2/c1-2-15(18)17-9-7-12-4-3-11-5-6-14-13(16(11)12)8-10-19-14/h5-6,12H,2-4,7-10H2,1H3,(H,17,18)/t12-/m0/s1
#inchikey YLXDSYKOBKBWJQ
#Ion_Source LC-ESI
#Instrument qTof
#Compound_Source Isolated
#PI Sirenas
#Data_Collector Ed Esquenazi 
#Scan -1
#Precursor_MZ 260.165
#ExactMass 0.0
#Charge 1
#CAS_Number N/A
#Pubmed_ID N/A
#Smiles N/A
#INCHI_AUX N/A
#Library_Class 3
#SpectrumID CCMSLIB00000005638
#IonMode Positive
#UpdateWorkflowName UPDATE-SINGLE-ANNOTATED-BRONZE
#LibraryQualityString Bronze
#TaskID d19310cd93df49b68e9fcbec27720eb5
##Scan# 2
#SpectrumFile Ramelteon.mgf
#LibraryName fda_library.mgf
#MQScore -1
#Organism fda_library
#TIC_Query 0
#RT_Query -1
#MZErrorPPM -1
#SharedPeaks 0
#MassDiff 0
#LibMZ -1
#SpecMZ 260.165
#SpecCharge 0
#internalFilename spec-00000.mgf

>collision 10
100.075836 103.450302
103.052902 41.377541
104.058266 17.75543
105.06945 281.812286
105.538536 3.583807
106.929718 5.28125
107.048561 76.723953
107.138344 5.626116
109.572083 3.861161
110.908936 10.90681
114.498146 4.007813
115.054352 238.106796
116.061546 184.580704
116.438377 5.957102
116.474037 13.7994
117.069077 442.722809
117.371445 6.935606
117.635727 4.935096
118.038132 5.957201
119.050896 47.897591
119.081375 38.269501
119.339165 1.885417
119.487595 6.420139
120.058823 24.50363
121.063171 90.675888
122.781326 6.864672
124.98011 6.589534
127.053253 144.460999
128.060226 133.276093
128.117996 6.376042
128.315079 4.001953
128.329514 10.85067
128.396942 8.245013
128.544525 14.83951
129.068756 259.565186
129.381287 5.432143
130.404037 3.663461
130.82196 5.488921
131.049683 490.610107
131.085617 1044.767944
131.112366 17.650351
131.123047 7.075
131.213364 5.046052
131.283997 8.640625
131.326187 5.085181
131.360489 6.36125
131.375381 5.015012
131.403534 6.021739
131.419235 3.387228
131.431213 5.379167
131.575333 13.96062
131.67804 10.45445
131.763031 11.49278
131.771133 4.27796
131.790726 5.005208
131.954651 4.475
132.057358 152.309097
132.250092 4.910672
132.294235 6.134084
132.334366 8.270833
132.386154 5.640012
132.399323 7.164474
132.42218 6.151042
132.443176 4.415179
132.4944 2.825625
132.503479 7.39278
132.539856 2.206801
132.584351 4.34375
132.596909 4.806818
132.640884 5.490385
132.660065 7.901042
132.692505 8.6868
132.714645 2.207201
132.766647 5.512784
132.776245 6.61539
132.80275 4.016544
132.823013 4.808681
132.992905 5.320023
133.042297 37.791199
133.065109 10909.94043
133.113907 77.642349
133.131607 35.980721
133.144516 20.66987
133.158707 13.63362
133.180893 8.904748
133.19574 4.021635
133.203033 25.131001
133.216629 7.515625
133.224045 2.626645
133.233871 33.01334
133.252274 5.9
133.271591 5.352108
133.286499 4.426042
133.297989 15.36163
133.313675 11.93155
133.336258 12.15829
133.343475 7.647204
133.35141 12.10938
133.360947 3.558824
133.393082 12.91562
133.400787 6.500947
133.425034 9.063377
133.445496 27.508881
133.45993 1.736607
133.486374 11.01719
133.501022 15.08703
133.528397 2.584375
133.553619 9.185652
133.574158 7.5748
133.597427 10.60205
133.686401 3.754018
133.754654 6.127992
133.770706 6.384943
133.807083 6.679087
133.912399 3.566612
133.97197 4.378125
134.066513 72.434486
134.419815 7.135045
134.508514 10.02563
134.661499 6.675209
135.482376 12.39063
135.859879 7.481427
135.92392 4.395748
136.346619 13.60042
136.480148 5.250208
136.496399 5.40501
137.919464 4.168403
137.956268 8.336538
138.275452 7.391602
138.955139 6.519631
139.052429 28.421709
139.935577 4.617647
140.060074 11.63988
140.108047 67.438332
140.32312 3.500401
140.34787 5.30389
140.529236 1.753125
141.069351 764.531616
141.264435 2.871228
141.314148 5.68641
141.877853 8.613281
143.05336 11.35714
143.085281 357.529602
143.272842 8.448255
144.030762 4.017857
144.056686 636.035522
144.190277 18.271561
144.198547 6.505661
144.244537 6.379823
144.277939 2.632353
144.545502 2.521635
144.591553 3.361111
144.817581 4.529412
145.064529 984.25531
145.100983 304.342896
145.162491 8.647474
145.223862 5.500347
145.25322 4.918289
145.345154 6.493164
145.392197 4.625
145.412766 5.11632
145.564011 4.615057
145.887131 10.27667
146.496735 1.665179
146.560883 7.998014
146.782532 6.055804
147.079544 86.944878
150.174973 12.65
150.821121 7.673478
153.062973 15.259
153.071472 17.63167
154.077225 158.885605
154.184814 6.801777
155.993835 2.125579
156.16008 6.556035
156.580978 3.465144
156.854904 15.30178
157.065033 247.020096
157.100754 97.602638
157.186447 8.384698
157.195007 8.511837
157.243362 3.564405
157.322342 2.0625
157.350403 8.605556
157.492828 4.558824
157.540146 4.752163
157.827118 14.59534
158.000229 7.112903
158.037994 5.398201
158.051697 11.75368
158.072845 1308.234009
158.109756 63.853191
158.125504 22.00371
158.134644 2.977083
158.148087 53.23642
158.17067 34.964111
158.190231 59.576389
158.209351 56.962799
158.220413 13.77367
158.235931 16.631109
158.246124 26.72072
158.264145 47.94474
158.282227 31.81122
158.295135 17.30411
158.307388 42.168732
158.321167 38.255951
158.330582 32.826401
158.339859 16.27964
158.359024 52.872169
158.369446 18.48661
158.387344 69.568977
158.399857 23.82518
158.409592 36.10038
158.422836 17.062099
158.433502 16.08613
158.453949 39.888489
158.467209 11.75528
158.482437 25.532141
158.496979 14.33521
158.514038 15.88491
158.530075 7.456731
158.555649 16.333031
158.572266 5.125
158.61203 1.8125
158.646805 4.412202
158.700058 15.09507
158.851135 59.62149
158.871124 12.88587
158.887329 7.556185
158.935776 13.79866
158.99762 6.884698
159.014542 7.750365
159.028122 4.429018
159.080872 61510.058594
159.318314 12.42011
159.468414 56.2145
159.483566 20.90313
159.494034 19.845421
159.50325 18.264919
159.527451 68.789879
159.543533 22.49575
159.555283 62.53566
159.565796 17.04229
159.591324 49.62421
159.60022 4.752604
159.609634 22.9041
159.62204 23.35251
159.638504 50.446659
159.649826 1.500679
159.670975 15.24287
159.690338 17.6714
159.701324 67.257607
159.721207 15.31473
159.743271 22.561319
159.7789 64.172073
159.812225 46.27803
159.824921 11.625
159.858871 10.88643
159.868088 9.847782
159.878769 28.56007
159.900314 10.45802
159.915161 14.03362
159.932663 11.52634
159.948105 10.05628
159.994263 16.870541
160.157974 9.629207
160.169769 47.22118
160.206085 6.500579
160.244827 53.326641
160.268509 21.43716
160.28067 26.90378
160.306595 23.25856
160.328079 11.75174
160.362701 76.941483
160.400681 37.75219
160.420059 14.29688
160.448593 13.4654
160.497284 12.91402
160.558838 6.752163
160.579681 20.84008
160.652374 11.81934
160.702454 7.895089
160.719406 10.08389
160.7939 21.01549
160.833893 14.50737
160.946747 6.895089
160.984009 12.21016
161.013214 12.02686
161.026245 4.877758
161.048141 7.751488
161.065979 6.875
161.096298 11108.139648
161.14856 67.023811
161.193237 48.327549
161.204849 6.509903
161.215729 5.407452
161.252487 39.679428
161.271851 18.500481
161.285736 25.816669
161.29863 17.6637
161.309814 11.19664
161.322189 5.62827
161.331833 18.6124
161.384247 35.045109
161.412476 8.255953
161.421341 24.480181
161.433807 20.75878
161.46199 5.730152
161.479797 9.194471
161.490005 15.31209
161.516953 11.54127
161.529572 11.42007
161.552078 9.577249
161.56871 17.805811
161.603058 13.24758
161.634979 12.03791
161.653427 29.74515
161.732315 15.54004
161.830383 15.58801
161.84436 12.41129
161.868835 7.032609
161.925018 13.2561
161.990234 8.205813
162.012009 5.708333
162.469467 4.55625
162.677094 4.502467
162.70372 3.75625
162.765854 3.170956
162.774719 2.416667
162.876831 4.379807
163.081177 2.004464
163.218842 10.37571
163.587982 4.290179
164.184784 5.621976
164.867493 4.250363
165.200974 12.24079
166.02504 7.916667
166.855347 7.264898
167.082901 9.943062
167.468491 5.066332
169.071198 4.52782
169.100815 823.184692
169.26088 5.581758
169.274292 4.980014
169.283203 3.501953
169.310364 4.775829
169.332993 3.517578
169.441849 6.033967
169.474121 4.201601
169.652786 4.275625
169.726273 9.359747
169.785995 4.923011
170.072037 15.76943
171.07872 76.815376
171.098862 9.597826
171.162933 7.325556
171.233475 10.69947
171.50502 26.60195
171.672256 9.754167
171.931793 6.063802
172.060562 35.275452
172.088211 1782.281006
172.168228 5.953125
172.239655 13.1656
172.311676 7.015625
172.353439 7.408288
172.37088 6.375284
172.3871 8.792969
172.438889 6.009527
172.797501 3.049592
172.820724 4.1875
172.90535 3.878606
173.134415 7.7
173.693085 3.225446
173.702225 5.176042
173.723465 18.625
174.161041 3.667014
174.184418 4.225
174.482559 2.385417
174.947968 8.385208
175.075867 3.660511
175.110672 300.558014
175.405487 8.100348
175.425812 4.258333
175.460022 13.25301
175.471954 4.503606
175.677872 5.215278
179.705139 4.185096
180.02919 24.09906
182.011276 5.206758
182.597977 3.501736
183.732986 5.126302
184.190643 2.502232
184.459915 2.716056
184.49295 5.092469
184.722351 5.798891
185.096207 238.565399
185.206619 11.2042
185.406052 5.250332
185.441589 2.359375
185.485764 5.147978
185.770981 2.883929
185.824677 10.08062
185.952347 69.306389
185.978439 46.212341
186.005585 93.26487
186.027924 12.5434
186.039597 27.06806
186.055344 25.29224
186.080048 199.845596
186.098785 127.109703
186.126465 76.514076
186.15419 47.557758
186.172745 8.301276
186.192932 95.984383
186.212112 35.275822
186.235352 67.248497
186.264053 28.31904
186.273666 16.354259
186.288269 46.180408
186.301971 23.563181
186.316376 23.62434
186.331207 15.96433
186.354004 23.85482
186.373077 31.13224
186.39743 21.917179
186.407272 4.129018
186.417267 37.930649
186.431274 12.67548
186.455734 2.170139
186.4664 23.72212
186.494324 49.13335
186.506668 2.258333
186.516525 12.44633
186.55336 66.393982
186.607788 8.628125
186.677567 6.354167
186.749283 7.383776
186.821701 17.82122
186.839401 1.790296
186.854736 13.90557
186.886475 20.24148
186.937698 8.988648
187.026779 7.875307
187.059158 18.67606
187.11235 91696.703125
187.170303 5.615973
187.460022 23.74235
187.507141 19.09185
187.527176 101.2901
187.551987 55.827709
187.583862 103.540199
187.603073 24.055281
187.618332 40.53233
187.635315 73.561737
187.651962 41.155361
187.665146 7.530918
187.676376 48.08326
187.707977 100.439697
187.733154 7.237295
187.742142 72.537933
187.762283 26.011431
187.778458 55.700901
187.799286 32.997971
187.813431 16.79159
187.839966 51.981098
187.854095 32.8433
187.869583 69.202309
187.8862 53.201881
187.910187 4.133333
187.920624 22.781759
187.934448 37.146019
187.982178 25.92156
188.063477 51.175091
188.087524 1.953125
188.175781 63.19463
188.225388 13.05315
188.315186 24.69813
188.481705 21.147221
188.509003 10.90203
188.574265 3.700446
188.603333 13.74575
188.695526 32.842522
188.820892 9.618123
188.895004 5.21007
188.958572 17.505831
189.005737 8.889439
189.018875 4.174823
189.125549 8.710208
189.14679 23.560419
189.162613 7.470274
189.273972 14.57795
189.295624 5.254018
189.390335 3.821429
189.536026 5.688616
189.794495 5.66129
189.833923 4.533288
189.862854 6.916914
190.005554 5.665519
190.09137 6.658967
190.226059 9.75287
190.250092 6.875256
190.350861 6.113228
190.378403 6.090909
190.466446 5.879502
190.520935 21.790609
190.618637 3.977273
190.653793 2.630208
190.683914 5.880651
190.787888 5.383311
190.864838 4.0
191.077866 2.730114
191.278336 5.291667
191.346436 9.325976
191.856155 5.140152
191.918793 2.770089
192.116516 4.054018
192.463791 4.035672
192.500305 3.520433
192.710312 10.13331
193.459427 5.557112
194.187912 3.89278
195.321838 2.75
196.305191 1.50142
197.130524 0.875
197.213531 15.0558
198.255127 5.722723
198.897049 3.880952
199.255371 4.500265
200.534256 5.037202
201.486145 4.933894
201.672928 7.322917
201.698547 3.510557
201.746063 3.885417
202.093994 5.384698
202.124573 36.757919
202.465836 6.191406
202.734512 10.48384
202.778442 9.371672
202.811737 4.907044
202.837326 11.80208
202.865143 60.568821
202.888901 107.991501
202.910248 161.5056
202.937469 57.417931
202.954376 2.347656
202.966522 120.460899
202.978424 47.37606
202.998993 144.591797
203.020615 96.738663
203.038986 183.795105
203.05217 25.889709
203.065842 58.17131
203.093826 270.111908
203.105438 129.977203
203.132202 59.869869
203.160446 62.744122
203.18483 67.155083
203.209137 9.740057
203.222961 65.799927
203.239716 40.960281
203.252914 3.655869
203.265686 22.515249
203.284546 54.529091
203.301849 30.706881
203.332672 25.602421
203.343582 32.18026
203.37146 46.788631
203.397644 4.90282
203.419373 17.170059
203.44812 5.204545
203.50029 51.402401
203.538742 15.59549
203.574341 15.72039
203.642899 26.308821
203.671417 54.049938
203.709808 31.990061
203.757965 32.045189
203.78006 11.125
203.794724 20.61274
203.819305 16.64052
203.83168 139.632095
203.916183 10.28526
203.94487 28.510019
204.139114 143821.5
204.425949 11.08173
204.464905 2.382353
204.573105 90.021446
204.616608 102.235901
204.635956 26.93614
204.655792 69.29863
204.684921 23.998711
204.698288 105.333603
204.70929 21.399561
204.725906 14.0654
204.747437 63.892509
204.76619 21.07052
204.782516 50.916672
204.806778 59.835609
204.836548 76.470337
204.851791 126.4618
204.916092 97.335381
204.941956 41.88575
204.976395 65.817741
205.046494 49.372349
205.204468 46.23505
205.232193 46.121811
205.264328 19.584129
205.405518 17.006809
205.4328 39.294979
205.481766 4.0
205.51535 29.208851
205.530182 4.008333
205.630814 30.602079
205.64682 12.85504
205.6716 4.242788
205.709991 22.616779
205.769592 11.045
205.873322 14.84213
205.989288 12.48891
206.075653 19.733749
206.169861 12.14664
206.188126 8.361608
206.265366 25.0425
206.294525 5.75
206.340271 23.327021
206.37001 11.3058
206.424957 37.076778
206.502151 7.095588
206.523254 17.789141
206.565216 4.917014
206.60022 8.520767
206.664764 12.55909
206.745499 6.125
206.950928 7.271739
207.046463 8.320513
207.107529 6.376736
207.321823 8.419424
207.356232 5.918064
207.378845 7.402902
207.495773 11.75611
207.671112 4.805
207.921829 6.092469
207.937027 7.086779
207.976944 1.75
208.02713 6.296402
208.082245 6.685606
208.536804 5.359375
208.674896 2.016984
208.961441 3.392578
209.112335 1.010817
209.223022 5.204102
209.268188 2.751042
209.409256 2.879018
209.688416 5.958681
210.692642 2.59375
210.713165 4.370245
212.323456 6.051098
215.10582 18.273199
215.366333 3.034206
215.739197 1.665296
217.478287 7.292245
225.125122 23.316481
231.143127 18.83605
232.856766 4.157552
240.370087 10.55273
242.15712 83.436501
242.219772 6.876302
242.281799 8.321368
243.133087 17.96459
255.952637 3.569711
258.447906 7.526401
258.638123 5.269471
258.655365 5.425864
258.7836 4.627758
258.92511 12.85539
259.091248 3.511364
259.125 7.358036
259.147675 11.91719
259.198822 11.13395
259.277435 5.222826
259.506042 1.750744
259.73172 10.19669
259.870361 6.165179
260.164734 6011.836914
260.231262 10.11211
260.246613 29.75317
260.275299 10.72011
260.324921 27.98835
260.352722 11.44097
260.364197 5.625893
260.405609 14.24133
260.428772 15.72357
260.477386 7.734375
260.502319 38.08321
260.526367 12.05032
260.550995 8.805577
260.565277 12.46442
260.595215 7.667734
260.646362 12.79443
260.710358 5.430625
260.727051 10.89063
260.789551 21.58009
260.809082 12.18112
260.856171 9.003125
260.928131 24.171709
260.948914 8.969392
260.973846 7.017314
261.080475 11.97262
261.264526 10.33336
261.413177 9.001041
261.635712 9.450557
262.830139 4.866235
264.749786 6.761096
268.573334 6.467618
273.15332 5.782552
274.396606 2.3
293.522491 3.796875
297.500275 4.589286
304.816864 1.795037
314.88385 4.755012
344.97406 5.33625
477.270508 9.988186
530.401306 5.493164
789.494995 5.63
861.621216 7.201562
940.780518 5.375284
1098.505371 3.855015
1181.288574 10.37813
1187.646973 8.088995
1245.782837 5.59375
1285.37561 11.28926
1648.398926 7.751042
