>compound cyclo(L-Phe-L-Pro)
>formula C14H16N2O2 
>ionization [M+H]+
>parentmass 245.128677
#inchi InChI=1S/C14H16N2O2/c17-13-12-7-4-8-16(12)14(18)11(15-13)9-10-5-2-1-3-6-10/h1-3,5-6,11-12H,4,7-9H2,(H,15,17)/t11-,12-/m0/s1
#inchikey QZBUWPVZSXDWSB
#Ion_Source DI-ESI
#Instrument qTof
#Compound_Source Isolated
#PI Keyzers
#Data_Collector R Keyzers
#Scan -1
#Precursor_MZ 245.128
#ExactMass 244.121
#Charge 1
#CAS_Number 3705-26-8
#Pubmed_ID N/A
#Smiles N/A
#INCHI_AUX N/A
#Library_Class 3
#SpectrumID CCMSLIB00000007042
#IonMode Positive
#UpdateWorkflowName UPDATE-SINGLE-ANNOTATED-BRONZE
#LibraryQualityString Bronze
#TaskID 76b66bf1ccd04cec9993212b36387ea3
##Scan# 2
#SpectrumFile CDB02_15F_pos_MSMS_001_1.mgf
#LibraryName gnps_library.mgf
#MQScore -1
#Organism test_rob_keyzers
#TIC_Query 0
#RT_Query -1
#MZErrorPPM -1
#SharedPeaks 0
#MassDiff 0
#LibMZ -1
#SpecMZ 245.128
#SpecCharge 0
#internalFilename spec-00000.mgf

>collision 10
21.38883 39.400002
29.694277 26.78125
32.629436 41.337959
35.324329 27.90132
41.508469 33.404999
44.071487 30.0
51.578991 22.444441
56.127758 50.24662
63.226913 213.491501
65.03833 31.48077
67.337669 31.28409
68.549721 64.004311
70.066536 103.708298
71.016373 28.66667
80.940201 31.2663
82.074234 40.164471
85.080421 29.00658
85.382805 30.075001
98.638092 23.66667
101.866783 29.56818
105.091583 27.25
105.40847 30.225
107.962631 236.625
118.034813 46.375
120.075668 227.347702
124.084496 44.78241
124.110481 94.736107
125.031166 82.050003
130.080978 69.375
130.965714 55.541672
131.996811 25.339279
132.957108 32.111111
133.077927 91.960114
151.108994 43.91848
151.772568 22.53289
155.289459 31.225
161.627411 27.009609
171.364197 51.020828
173.094604 23.29167
173.148026 61.004311
175.952637 79.917557
176.366898 32.471149
183.146606 52.083328
184.128799 49.603569
185.106216 101.086998
186.076569 39.125
187.119446 135.945297
191.092941 27.20455
193.631775 66.409088
199.625717 49.07692
200.099625 31.20455
201.094604 34.041672
202.844559 73.640152
204.058838 106.258102
204.840118 38.339291
208.156357 80.96196
210.691971 26.595591
213.106613 62.458328
215.115952 1070.331055
216.115555 83.842102
217.128983 356.870087
218.126953 63.96983
226.17926 1148.06897
226.546677 39.008339
227.102844 47.25
227.189713 479.091187
228.11618 61.020828
229.156387 120.532898
231.342804 50.00658
241.136002 101.448303
242.889938 26.02083
243.115005 4045.610107
243.17955 2441.878906
243.276047 159.024994
243.312714 127.538498
243.427414 22.08333
243.493988 43.337959
243.681229 901.565125
243.806503 24.125
243.881866 57.285709
243.939499 243.9375
244.125671 2811.754883
244.188339 3435.924072
244.328323 80.529411
244.409805 33.166672
244.561478 23.08654
244.61821 28.450001
244.681931 54.603569
244.812698 41.05357
244.920166 34.0
244.983505 133.8228
245.128677 21734.140625
245.30864 86.041656
245.339691 54.36742
245.472931 44.240379
245.562134 40.0
245.618195 44.404999
245.670242 71.03125
245.742264 49.115742
245.795517 63.273651
245.906891 30.01786
246.025024 30.33333
246.13089 1953.449951
246.244919 47.125
246.349884 38.125
246.381393 38.450001
246.572357 28.81818
246.64476 29.16667
246.742172 24.92045
246.834366 35.444439
246.881866 29.0
246.962906 27.027781
247.101776 25.005951
247.171936 82.281967
247.286911 54.444439
247.387726 63.211208
248.440292 37.00658
248.802963 31.10227
260.65976 24.90132
261.892487 27.05357
269.371094 29.16346
286.730072 35.005951
296.798645 27.6875
302.18576 90.0
305.230225 37.020828
311.238464 27.48077
317.225586 33.083328
327.086243 24.08654
345.236053 57.605
356.6008 31.00658
360.182861 33.901321
374.710785 22.694441
379.214966 57.080132
383.36853 23.005951
394.282043 33.5
410.566925 23.72024
416.87326 23.285721
431.739624 62.173779
436.631134 27.09091
465.851257 26.111839
469.644348 23.125
481.080841 34.666672
523.898621 37.125
539.053955 23.450001
548.491455 25.111111
560.089233 29.0
583.890381 22.10227
608.622742 29.445
631.135437 36.022732
658.074951 29.94231
676.299683 25.2663
699.737244 44.69231
735.76062 26.33333
749.154968 23.04167
799.67865 52.191181
819.574829 26.240391
823.940369 35.599998
825.524414 49.44643
862.957031 45.028851
870.891418 113.163498
921.864685 33.445
952.408203 28.183821
983.178955 23.007351
