>compound Etoposide
>formula C29H32O13 
>ionization [M+H]+
>parentmass 589.193
#inchi InChI=1S/C29H32O13/c1-11-36-9-20-27(40-11)24(31)25(32)29(41-20)42-26-14-7-17-16(38-10-39-17)6-13(14)21(22-15(26)8-37-28(22)33)12-4-18(34-2)23(30)19(5-12)35-3/h4-7,11,15,20-22,24-27,29-32H,8-10H2,1-3H3/t11?,15?,20?,21-,22+,24?,25?,26?,27?,29?/m1/s1
#inchikey VJJPUSNTGOMMGY
#Ion_Source LC-ESI
#Instrument qTof
#Compound_Source Isolated
#PI Sirenas
#Data_Collector Ed Esquenazi 
#Scan -1
#Precursor_MZ 589.193
#ExactMass 0.0
#Charge 1
#CAS_Number N/A
#Pubmed_ID N/A
#Smiles N/A
#INCHI_AUX N/A
#Library_Class 3
#SpectrumID CCMSLIB00000005538
#IonMode Positive
#UpdateWorkflowName UPDATE-SINGLE-ANNOTATED-BRONZE
#LibraryQualityString Bronze
#TaskID d19310cd93df49b68e9fcbec27720eb5
##Scan# 3
#SpectrumFile Etoposide.mgf
#LibraryName fda_library.mgf
#MQScore -1
#Organism fda_library
#TIC_Query 0
#RT_Query -1
#MZErrorPPM -1
#SharedPeaks 0
#MassDiff 0
#LibMZ -1
#SpecMZ 589.193
#SpecCharge 0
#internalFilename spec-00000.mgf

>collision 10
101.021149 173.786896
101.065285 4.5
109.028725 203.171402
111.044388 124.888603
111.502502 9.105603
114.55748 22.45833
114.58271 43.385971
115.053375 725.016174
115.098015 7.5
115.247353 18.534719
125.056801 54.11779
126.322044 16.941179
127.036774 168.859497
127.052116 90.531128
127.472748 6.051136
128.059494 51.982712
128.492218 7.503676
129.05983 61.982208
129.069443 180.173904
135.042648 146.673096
143.047272 263.288788
143.139114 12.0
143.593719 7.444853
149.017029 26.08882
157.072952 5.0
167.067612 110.824699
171.043594 30.00403
171.873184 7.083333
171.98674 9.59375
172.046112 30.57761
172.301682 17.255211
172.95192 28.353411
173.011871 90.605202
173.059509 1145.290039
173.120071 9.003676
173.203674 33.988171
173.220779 6.011364
173.240112 12.25
173.257416 33.002838
173.376495 18.58581
173.555191 6.6125
173.868774 14.7
174.54213 26.822769
183.060257 25.351851
183.881592 19.224541
183.956299 29.50893
183.977875 14.01308
183.992401 19.078529
184.023483 40.06414
184.042831 13.4225
184.072723 29.56316
184.098557 24.9375
184.136566 27.50189
184.152512 21.515631
184.180832 17.00169
184.21611 11.51082
184.246933 17.51103
184.279999 9.240385
184.321777 31.77574
184.390289 17.742229
184.421707 74.121483
184.438492 15.64286
184.624924 3.5
184.857407 72.094872
184.876007 8.525
184.89743 92.803848
185.059494 19000.429688
185.119293 95.145844
185.135727 36.003681
185.147614 77.664436
185.188187 42.701389
185.22728 79.788918
185.257904 34.425709
185.268311 56.033131
185.296753 11.54464
185.321457 99.683472
185.382004 20.004999
185.451904 69.026627
185.480453 55.642071
185.510437 53.606819
185.523636 28.86161
185.556747 51.475761
185.574921 11.16964
185.591812 25.11343
185.603638 41.591751
185.668427 19.32008
185.686005 26.30645
185.709488 21.0625
185.745377 36.22039
185.771042 42.304749
185.785919 17.51042
185.903778 10.01042
185.970337 13.01042
185.995911 5.4375
187.291031 8.502976
187.380859 9.297794
187.505875 9.002976
187.861481 11.77885
189.051178 30.673611
189.142456 25.72473
190.677368 9.459239
190.864395 9.050404
197.808945 4.005682
199.040512 1117.052979
199.102768 6.661184
199.260223 10.5375
199.476013 20.951851
199.864929 7.0125
201.052368 137.937607
210.387238 12.32008
217.050018 805.345886
217.094971 6.011364
217.736679 4.173611
217.874069 7.53125
219.084579 10.1125
226.248245 36.394741
227.033051 96.123581
227.609924 6.1875
227.635635 6.50329
227.680374 36.415279
227.69899 4.504807
227.745865 4.504807
227.827591 33.82328
227.899719 24.947371
227.976929 9.5125
228.008408 11.65385
228.260681 26.93902
228.555176 9.8025
228.620819 6.1875
228.672546 39.006939
228.702866 10.52083
228.736298 16.53125
228.786575 9.008928
229.0177 142.700699
229.04953 14231.469727
229.113388 216.563293
229.134125 31.52083
229.158325 26.541241
229.19075 48.511108
229.205582 68.705132
229.218628 135.155502
229.232086 10.44485
229.257278 56.951309
229.309998 27.846979
229.327576 96.791031
229.347748 44.730259
229.383545 13.88942
229.411728 16.266451
229.429337 34.964291
229.45105 6.333333
229.46315 19.778851
229.493744 42.84996
229.54213 56.465931
229.574554 70.09066
229.664963 31.159651
229.681763 47.284321
229.737137 31.638161
229.77977 11.04079
229.866653 17.64464
229.898209 15.50625
229.91391 14.86029
229.949295 56.074249
229.988556 33.760139
230.31012 16.11731
230.401382 9.556818
230.648941 3.223214
230.700699 28.514709
230.884995 4.778409
230.965912 38.3283
231.330185 22.84483
231.515152 8.5025
232.776749 32.5084
234.291687 4.642045
237.470932 13.00735
237.756241 34.2561
239.067902 37.968681
239.420959 6.0625
241.044037 18.725
241.467087 9.8
243.34021 14.33523
245.041565 68.716072
245.695007 8.041667
246.7099 9.104167
247.059677 427.435394
247.617966 6.620193
250.711151 6.946429
267.059814 282.076508
267.246094 33.575562
267.935913 4.125
267.997864 5.333333
269.982727 6.25
275.071655 35.46944
277.053253 38.576221
277.084991 51.404919
280.106323 6.580357
283.05658 38.047039
284.063446 25.02648
291.056396 11.0744
292.069611 33.502499
292.277649 7.571429
298.076477 28.470591
298.272003 23.947371
299.086731 107.725197
305.079681 81.052803
307.096283 34.734718
322.084778 24.502159
322.191162 2.506944
333.065308 26.637501
334.078064 44.238239
337.098969 56.673531
339.118958 38.420139
354.067627 10.44643
