>compound MLS002473235-01!3-(3,4-dihydroxyphenyl)-6,8-dihydroxyisochromen-1-one
>formula C15H10O6
>ionization [M+H]+
>parentmass 287.05368
#inchi InChI=1S/C15H10O6/c16-9-3-8-5-13(7-1-2-10(17)11(18)4-7)21-15(20)14(8)12(19)6-9/h1-6,16-19H
#inchikey NHFGEHLUROYMEB
#Ion_Source LC-ESI
#Instrument qTof
#Compound_Source NIH Natural Product Library
#PI Dorrestein
#Data_Collector VVP/LMS
#Scan -1
#Precursor_MZ 287.056
#ExactMass 286.048
#Charge 1
#CAS_Number N/A
#Pubmed_ID N/A
#Smiles Oc1cc(O)c2c(=O)oc(cc2c1)c3ccc(O)c(O)c3
#INCHI_AUX N/A
#Library_Class 1
#SpectrumID CCMSLIB00000080377
#IonMode Positive
#UpdateWorkflowName UPDATE-SINGLE-ANNOTATED-GOLD
#LibraryQualityString Gold
#TaskID b1d8e8f6646f4e71acdff9ca3d919d08
##Scan# 1850
#SpectrumFile p2-A08_GA8_01_17977.mzXML
#LibraryName NIH_Natural_Products_Library.mgf
#MQScore -1
#Organism NIH_Natural_Products_Library
#TIC_Query 0
#RT_Query -1
#MZErrorPPM -1
#SharedPeaks 0
#MassDiff 0
#LibMZ -1
#SpecMZ 287.056
#SpecCharge 0
#internalFilename spec-00000.mgf

>collision 10
95.558685 100.0
95.669624 248.0
96.176453 160.0
96.996582 88.0
97.139198 168.0
98.09491 200.0
98.582428 160.0
98.849396 168.0
98.863243 176.0
98.883034 196.0
99.420128 144.0
100.189636 76.0
100.596466 216.0
101.460709 48.0
102.081146 92.0
102.56636 48.0
103.053764 352.0
104.43531 176.0
105.028046 140.0
105.563148 184.0
106.937477 172.0
108.207275 120.0
108.804375 88.0
108.872902 220.0
109.032867 116.0
109.619736 152.0
110.036911 196.0
110.310585 220.0
111.265884 84.0
111.564209 128.0
112.012451 164.0
112.090401 152.0
112.512245 152.0
112.991997 164.0
114.426735 136.0
115.050224 184.0
116.220001 144.0
116.41964 92.0
116.72049 100.0
116.957146 192.0
118.053169 160.0
118.793922 232.0
119.045692 148.0
119.386887 164.0
119.968246 68.0
120.240906 72.0
120.520432 60.0
121.028831 1536.0
121.054169 104.0
121.266678 56.0
122.030853 272.0
122.292404 192.0
122.708755 236.0
122.746239 160.0
122.924919 180.0
123.198708 112.0
123.833557 120.0
123.939896 84.0
124.035194 172.0
124.274712 164.0
124.935074 140.0
125.375664 208.0
125.466835 160.0
125.484673 184.0
125.593948 184.0
126.8908 224.0
127.044441 172.0
127.0784 36.0
127.357773 52.0
127.443138 44.0
127.476845 92.0
127.53978 76.0
128.061935 660.0
128.738388 88.0
129.069382 452.0
130.069702 232.0
130.085587 112.0
130.455872 80.0
131.049133 264.0
131.636108 156.0
131.93544 148.0
133.126923 92.0
133.182037 140.0
133.340576 260.0
133.515305 112.0
134.176178 132.0
134.416046 160.0
134.600723 112.0
134.716202 120.0
135.660385 196.0
137.023743 1288.0
137.068863 116.0
137.229706 40.0
137.553986 68.0
138.383926 140.0
138.618164 112.0
138.728317 212.0
139.011551 212.0
139.054138 3724.0
139.110703 60.0
139.218704 60.0
139.282425 160.0
139.3479 84.0
139.787613 176.0
140.057098 776.0
140.2285 152.0
140.824951 144.0
140.843842 204.0
141.064789 196.0
141.520203 144.0
142.4879 40.0
142.568695 140.0
142.89209 84.0
143.025345 128.0
143.052155 264.0
143.151535 56.0
144.054138 180.0
145.012634 204.0
145.07016 72.0
145.92244 188.0
147.043442 488.0
147.702209 72.0
149.023468 148.0
149.042892 168.0
149.767883 224.0
149.853149 60.0
150.976013 156.0
151.051834 164.0
152.970825 152.0
153.663345 108.0
154.268402 136.0
155.046967 184.0
155.695633 108.0
155.924469 176.0
156.055466 124.0
156.312149 192.0
157.066559 628.0
157.553833 108.0
158.083923 208.0
158.103943 176.0
158.569778 156.0
159.046219 176.0
160.055695 212.0
160.661896 92.0
160.793106 204.0
161.024658 524.0
161.058716 184.0
161.134003 140.0
161.819427 60.0
162.029633 236.0
162.97348 108.0
164.583282 136.0
164.961395 136.0
166.034241 216.0
166.632355 132.0
167.048416 1384.0
168.053406 344.0
168.223938 116.0
168.813034 172.0
169.061371 192.0
170.825745 160.0
171.044952 788.0
171.151062 196.0
172.049301 296.0
173.057159 140.0
174.955383 136.0
175.038422 164.0
175.941376 132.0
176.052277 168.0
176.395752 112.0
177.016754 1188.0
177.534271 140.0
178.017258 176.0
179.028503 124.0
179.055771 136.0
179.424835 132.0
183.045547 216.0
184.05275 172.0
185.060043 708.0
185.116608 200.0
186.064423 308.0
186.785126 152.0
188.043976 148.0
188.456329 68.0
189.057526 336.0
189.778351 76.0
190.063614 132.0
190.489166 76.0
190.508392 136.0
191.055481 164.0
193.38446 212.0
194.337769 184.0
195.043076 432.0
196.059067 108.0
196.08136 204.0
196.68103 192.0
198.376205 104.0
199.035538 88.0
200.239166 116.0
201.042648 184.0
202.068375 76.0
202.13063 244.0
202.597809 72.0
203.068344 128.0
204.036667 164.0
204.079315 192.0
206.683533 156.0
209.664352 144.0
210.587601 196.0
212.038406 140.0
212.878448 180.0
212.945236 68.0
213.054367 2976.0
213.203812 52.0
214.056671 612.0
214.615646 36.0
214.700211 28.0
214.802307 64.0
214.924835 52.0
215.049133 216.0
215.072006 224.0
215.099945 80.0
215.409485 100.0
215.555557 164.0
215.903442 88.0
216.032135 144.0
217.045517 128.0
218.058334 64.0
218.781937 144.0
219.601135 84.0
220.023117 96.0
220.457306 180.0
221.798065 180.0
223.040939 244.0
224.3367 152.0
225.053101 132.0
225.602463 48.0
226.269623 176.0
227.029953 256.0
229.043457 308.0
230.04863 348.0
230.577225 132.0
230.958191 148.0
231.060181 140.0
231.15181 92.0
232.090836 108.0
232.673386 148.0
232.967972 224.0
232.998352 144.0
235.004761 104.0
236.741028 120.0
239.526779 84.0
240.02298 172.0
240.306747 144.0
240.562897 48.0
240.609207 112.0
240.689484 140.0
240.766693 88.0
240.979828 88.0
241.050919 1700.0
241.149796 72.0
241.576508 56.0
241.731216 40.0
241.864304 132.0
242.054398 376.0
242.542664 36.0
242.641861 72.0
243.066116 140.0
244.051453 108.0
246.545258 192.0
248.386292 104.0
251.038208 444.0
251.365753 164.0
252.044662 164.0
252.341782 156.0
253.414734 240.0
255.045914 100.0
256.733368 108.0
257.042786 92.0
258.053253 132.0
258.304382 132.0
259.05423 136.0
260.064026 144.0
261.738892 104.0
267.098419 128.0
268.163177 72.0
268.557678 72.0
268.743652 72.0
268.883972 64.0
268.984863 180.0
269.045044 11188.0
269.133636 60.0
269.167969 52.0
269.252869 152.0
269.346161 72.0
269.452148 100.0
269.837799 36.0
269.948975 48.0
270.048615 1472.0
270.508453 144.0
270.645966 36.0
270.724548 56.0
270.947296 72.0
270.973511 72.0
271.049347 268.0
271.317627 40.0
271.629181 100.0
272.045929 160.0
272.124725 152.0
273.051392 124.0
273.67334 68.0
274.292725 92.0
280.794952 128.0
281.185303 72.0
284.022644 116.0
285.345764 48.0
286.422668 88.0
286.793304 40.0
287.05368 1372.0
287.143951 48.0
287.309235 96.0
287.353088 72.0
287.464447 44.0
287.55896 60.0
288.024902 76.0
288.057739 268.0
288.176941 280.0
288.406738 156.0
288.812469 52.0
289.066223 172.0
293.990387 128.0
294.994537 64.0
297.018341 232.0
301.684418 136.0
325.003937 136.0
325.919556 84.0
329.04953 180.0
330.046753 144.0
411.473236 64.0
431.312103 20.0
453.173798 20.0
486.717224 100.0
499.903656 140.0
531.498169 96.0
570.712158 52.0
594.437683 44.0
596.701172 20.0
609.006104 52.0
656.158447 72.0
661.195007 36.0
670.099182 44.0
676.756775 92.0
793.630981 136.0
794.977234 40.0
846.522705 180.0
898.773926 160.0
1050.016357 116.0
1100.910767 44.0
1108.935791 144.0
1114.89563 44.0
1145.877197 72.0
1151.928589 40.0
1154.104736 164.0
1167.5177 196.0
1222.904907 108.0
1230.0354 176.0
1234.597778 160.0
1259.005005 160.0
1259.174438 48.0
1262.192017 192.0
1264.469849 156.0
1269.386353 112.0
1276.707886 140.0
1292.780396 60.0
1297.687134 148.0
1388.196167 108.0
1414.137207 152.0
1414.691162 216.0
1414.74353 104.0
1423.756226 172.0
1428.310791 232.0
1433.272095 160.0
1439.570679 128.0
1466.18335 196.0
1473.348145 144.0
