>compound Etodolac
>formula C17H21NO3 
>ionization [M+H]+
>parentmass 288.15979
#inchi InChI=1S/C17H21NO3/c1-3-11-6-5-7-12-13-8-9-21-17(4-2,10-14(19)20)16(13)18-15(11)12/h5-7,18H,3-4,8-10H2,1-2H3,(H,19,20)
#inchikey NNYBQONXHNTVIJ
#Ion_Source LC-ESI
#Instrument qTof
#Compound_Source Isolated
#PI Sirenas
#Data_Collector Ed Esquenazi 
#Scan -1
#Precursor_MZ 288.161
#ExactMass 0.0
#Charge 1
#CAS_Number N/A
#Pubmed_ID N/A
#Smiles N/A
#INCHI_AUX N/A
#Library_Class 3
#SpectrumID CCMSLIB00000006120
#IonMode Positive
#UpdateWorkflowName UPDATE-SINGLE-ANNOTATED-BRONZE
#LibraryQualityString Bronze
#TaskID d19310cd93df49b68e9fcbec27720eb5
##Scan# 2
#SpectrumFile Etodolac.mgf
#LibraryName fda_library.mgf
#MQScore -1
#Organism fda_library
#TIC_Query 0
#RT_Query -1
#MZErrorPPM -1
#SharedPeaks 0
#MassDiff 0
#LibMZ -1
#SpecMZ 288.161
#SpecCharge 0
#internalFilename spec-00000.mgf

>collision 10
103.05204 85.394096
104.047798 26.08284
105.069481 70.498711
107.087555 13.08333
115.05307 120.834
116.059883 43.398972
117.056099 114.7202
117.06926 126.306297
117.30719 11.04545
117.399841 17.734091
117.732925 20.517241
120.044426 26.66667
121.77269 31.692039
125.057404 13.83114
127.052307 176.015701
129.072708 28.76535
129.121414 7.916667
130.063507 236.450897
130.15416 18.343439
130.361008 5.633333
134.09433 36.481522
141.365463 88.431236
142.067932 25.68729
142.175522 15.84118
142.221161 6.520061
142.238312 9.926471
142.283386 8.001437
142.316345 10.67045
142.354095 32.210201
142.396698 5.926282
142.461914 35.647869
142.557388 4.669872
142.897308 6.260417
143.072968 5326.294922
143.124207 85.576363
143.149307 8.852273
143.178543 29.88167
143.225311 59.589569
143.236145 26.510969
143.257507 31.170691
143.285233 25.621229
143.297821 10.3869
143.318085 26.20204
143.339371 8.016666
143.406708 6.932018
143.504044 29.66453
143.514359 7.486111
143.568542 15.48214
143.589386 7.334677
143.607117 17.765869
143.676941 16.3592
143.6978 7.854167
143.868851 22.412451
144.056702 17.027781
144.080566 5677.806152
144.140427 6.774123
144.150482 13.02778
144.186127 11.00872
144.232056 8.706141
144.250275 24.83424
144.268875 18.20417
144.317993 25.720779
144.332382 35.71151
144.342957 13.875
144.389282 21.99946
144.416061 11.02381
144.466156 5.335526
144.474442 11.72854
144.487061 14.3592
144.541641 9.429762
144.55397 14.34987
144.595657 12.3447
144.652817 53.9244
144.675369 9.62963
144.736084 18.712839
144.763184 13.00253
144.84584 24.012289
145.099075 142.295502
145.387527 7.35
145.903397 11.73485
145.93335 27.0
146.097351 132.703003
146.178543 30.00379
146.248825 22.94833
146.861725 11.25926
154.066406 40.33503
154.080658 38.008339
155.085297 75.151176
155.21283 5.729167
155.607758 21.4902
155.88649 18.225
156.0802 219.204498
157.088104 1118.972046
157.126434 4.15
157.22229 32.42672
157.601395 7.361486
158.195923 4.763889
159.103699 36.804741
159.399307 9.958333
160.07666 32.514568
167.070786 600.453186
167.302094 17.75238
168.122055 9.055181
168.437943 10.6875
169.096924 6.037281
169.106522 34.701271
169.340256 21.960779
169.540482 4.297619
169.885895 12.04167
170.094101 87.398392
170.171661 10.60093
170.236008 15.75
170.289673 15.44676
170.73941 20.33396
170.757584 10.01389
170.981308 35.017071
171.021332 17.709681
171.051804 41.526371
171.063431 22.691799
171.109665 276.016815
171.134567 56.44846
171.154938 146.094406
171.174271 54.851898
171.193832 201.786301
171.233673 75.435593
171.252777 147.323898
171.271851 73.437607
171.280731 50.634079
171.293793 120.3993
171.30426 39.400478
171.325302 37.50695
171.340118 82.940361
171.356277 37.988171
171.366867 48.411911
171.395081 24.81073
171.417877 48.302979
171.436478 53.836491
171.458008 63.831848
171.478088 50.485958
171.507263 8.668651
171.534988 23.722219
171.551941 30.86215
171.580414 30.80055
171.591843 6.160088
171.640686 31.775511
171.676926 55.409199
171.71254 44.409012
171.757843 17.060511
171.892288 44.529701
171.907959 78.085091
171.954895 34.960838
171.99971 39.32333
172.014343 14.16376
172.042099 13.85494
172.079544 106.651299
172.112427 146126.296875
172.504486 75.101097
172.523331 67.701927
172.539734 114.733597
172.562134 80.196693
172.572372 89.563652
172.594177 93.029243
172.60788 122.962196
172.615997 46.226669
172.636703 71.918297
172.652985 221.641098
172.679703 161.650604
172.701294 55.320648
172.717377 41.852909
172.734009 22.885929
172.748627 46.909901
172.769485 67.39576
172.795792 29.15041
172.805878 30.17746
172.819229 111.2575
172.833618 11.87337
172.852356 48.284321
172.881348 36.291679
172.907257 123.886101
172.93541 82.518173
172.964294 84.266747
173.01976 71.253036
173.166748 45.694111
173.218628 69.877098
173.242599 31.695339
173.255142 45.17593
173.338257 28.400299
173.350174 26.52976
173.374817 22.764589
173.422562 28.118521
173.453766 56.046692
173.486923 5.666667
173.544174 14.14015
173.757523 18.556721
173.822723 12.60417
173.919632 14.41417
173.988251 11.29412
174.000519 12.92628
174.050995 9.405142
174.149414 9.162698
174.293869 11.03333
174.372421 12.01515
174.472656 5.558333
174.533264 10.02315
174.560867 13.44444
174.629654 6.741667
174.671799 4.891667
174.689835 5.714285
174.707703 4.671297
174.937149 6.722222
174.974442 17.444811
174.993149 13.34722
175.117432 4.001812
175.292404 8.344048
175.315445 22.001539
175.485916 14.17204
175.518219 17.768721
175.550476 5.061275
175.867676 5.823718
175.940414 9.84375
176.208176 9.633772
176.48793 16.614771
177.062439 41.11377
177.10228 4.722222
177.618912 10.38075
179.261963 8.044118
179.691177 7.041667
180.080139 163.410202
180.255493 15.36458
180.714111 8.148809
181.088089 473.027405
181.162537 10.66945
181.219162 14.27161
181.247009 10.0947
181.286835 5.25
181.330704 7.510965
181.378174 11.67045
182.051147 48.367371
182.095612 2022.39502
182.146805 13.34848
182.171768 9.815476
182.222504 6.371913
182.241287 7.033602
182.27417 5.009259
182.309738 8.300439
182.34964 19.18951
182.540649 15.98994
182.59726 9.107142
182.626602 8.370833
182.694183 16.247259
182.815506 7.481667
183.139404 4.666667
183.431412 11.6832
183.530899 6.001984
184.070679 31.33333
184.111053 126.925102
185.11586 102.691299
186.131744 21.69463
186.204086 7.935
186.906113 5.666667
188.109894 74.967812
189.115112 32.916672
189.256134 20.3867
192.078873 40.226849
192.966354 16.36134
194.096191 181.547394
194.24411 8.0
194.282928 9.280702
194.487396 10.55682
194.95256 11.33514
195.023468 7.347222
195.103851 1257.786011
195.222015 10.00595
195.294678 18.96003
195.513306 8.027778
195.536346 9.122475
195.59938 7.121212
195.950134 7.88587
196.112198 875.202209
196.212997 4.844298
196.344803 23.70096
196.377396 6.818182
196.427231 7.009615
196.446732 14.33333
196.461365 18.35038
196.549149 3.727941
196.610825 8.613637
196.639206 36.18169
196.691193 7.120098
196.832275 8.160256
196.9151 10.08654
197.078232 81.630074
197.119644 575.487915
197.266754 9.445371
197.659439 29.55604
197.686569 4.458333
198.089188 102.0075
198.126968 275.094299
198.407639 8.888888
198.49881 27.48214
198.931549 9.032609
199.029846 15.6768
199.614197 14.06061
200.1082 53.288071
200.137817 194.242401
203.422089 52.61153
206.094955 12.93056
207.110413 23.245939
207.123337 25.0
207.134689 15.07407
207.816574 8.419871
207.881775 10.5328
207.967148 17.441441
208.079681 122.503899
208.109589 31.331671
208.187866 14.34483
208.373627 10.68432
208.866089 16.40517
208.895325 10.615
208.936462 9.044118
208.997864 4.259615
209.047104 6.333333
209.088303 35.87635
209.121216 568.530823
209.384247 5.022059
209.561432 41.689232
209.689209 16.735001
209.809998 46.597721
209.822495 8.491228
209.908112 12.08232
209.948669 22.675159
210.036148 31.694309
210.127518 7730.407227
210.197647 67.799553
210.220718 10.10965
210.24614 19.096121
210.341843 22.253969
210.356934 3.703704
210.382156 11.6713
210.414566 34.011719
210.466949 19.26675
210.49321 16.693451
210.510574 7.341667
210.525162 17.33333
210.604248 9.456301
210.619385 5.008333
210.639954 21.00877
210.654739 8.686275
210.734497 16.1201
210.752029 36.235352
210.77095 16.51111
210.846756 19.12398
210.990875 12.75758
211.00296 33.32848
211.097458 21.81492
211.265945 24.71875
211.296478 16.110359
211.37233 10.7067
211.392578 14.42846
211.430191 19.867729
211.683838 9.218137
211.71167 14.15789
212.104385 24.117889
212.283859 9.854167
212.831512 7.721847
213.10881 33.14325
214.125107 32.652069
214.159332 38.318748
214.204041 7.041667
214.712738 8.410256
215.089005 29.336809
215.251938 7.469444
222.090332 29.8109
222.107529 63.334492
222.125061 105.600098
222.260895 14.48007
222.568176 8.015151
222.8255 26.952379
222.870972 13.65351
222.91713 9.561992
223.040741 6.05
223.098343 282.309998
223.285156 6.061274
223.399078 37.39677
224.106995 261.013
224.143646 6135.084961
224.2164 16.355499
224.235031 31.845819
224.284271 43.634682
224.299927 6.927469
224.316864 55.43504
224.372757 7.507184
224.443115 22.812731
224.471527 6.856061
224.48793 8.45
224.511459 44.976231
224.551224 15.61093
224.573212 20.860121
224.59024 8.601666
224.68631 12.24282
224.711685 16.94092
224.75856 8.006945
224.842407 15.00298
224.883759 7.668478
224.904633 31.11388
224.980408 24.975981
225.272995 8.008333
225.422852 17.59425
225.468445 13.78667
225.721054 6.444445
226.08429 129.866501
226.125153 334.449585
226.158249 701.460999
226.304916 8.341666
226.45517 23.422171
226.493454 7.025641
226.530136 7.921875
226.561523 10.35
226.744843 19.823641
226.777527 15.04167
226.818069 9.361112
226.872025 16.222219
226.925598 12.70833
227.017334 17.93223
227.295227 15.06368
228.138062 2636.139893
228.196671 12.5625
228.298096 17.21377
228.345551 13.73194
228.379944 28.19503
228.4086 9.010715
228.522415 24.26239
228.556244 10.02206
228.700119 27.89608
228.739853 4.336111
228.8293 6.6875
228.971573 20.612341
229.113571 4.054824
231.118881 59.692429
231.404648 13.06618
231.473572 5.708333
234.566818 10.875
237.118515 79.278099
237.728989 5.679598
239.131119 162.109802
239.324799 6.037037
239.707535 8.347222
239.825928 16.836809
240.101639 30.181339
241.108612 270.608795
241.449905 9.075
242.152145 339.195312
242.824905 15.40776
243.253372 10.39701
243.389023 7.349638
244.169083 67.47525
250.595871 13.07419
250.925446 14.97222
251.091125 16.41379
251.603653 21.021429
252.137604 2613.957031
252.270477 21.256519
252.288452 6.351191
252.3564 28.69389
252.378677 9.483334
252.398529 5.166667
252.431366 41.158661
252.466187 14.41223
252.56163 23.77829
252.616058 27.74371
252.647751 4.351191
252.71785 4.741667
252.786819 9.714286
252.811493 5.680555
253.270233 15.75
253.306213 10.37745
253.529877 17.14683
253.664032 6.095238
253.6884 13.09886
255.124664 160.865997
255.317642 9.967105
255.449631 17.42539
255.781677 6.685185
257.648987 10.05235
258.107819 140.184601
258.755798 9.388888
259.115936 184.566803
268.405701 5.802778
268.493317 9.375
268.635162 6.107143
268.69754 11.09399
268.755646 7.335784
269.464844 4.481482
270.148834 5232.799805
270.218201 32.990398
270.258057 28.932369
270.288666 19.90873
270.307007 15.03728
270.381195 17.09339
270.429352 3.666667
270.451813 11.77778
270.49173 10.46833
270.51062 40.40551
270.534882 6.201666
270.560974 9.375
270.580811 22.021299
270.60553 41.851299
270.618164 5.34375
270.637329 7.04529
270.652527 11.34069
270.692596 7.006945
270.733948 29.88937
270.819183 11.16026
270.860626 8.066667
270.9216 11.45333
270.96167 11.76956
271.328369 26.96994
271.844727 3.791667
271.873199 8.520061
272.672516 9.053572
288.15979 12.72185
289.32428 6.684524
396.159515 33.189678
672.18988 9.423913
683.753723 4.721154
1238.090698 11.07407
1685.34082 9.198529
