>compound Erythromycin
>formula C37H67NO13 
>ionization [M+H]+
>parentmass 734.46814
#inchi InChI=1S/C37H67NO13/c1-14-25-37(10,45)30(41)20(4)27(39)18(2)16-35(8,44)32(51-34-28(40)24(38(11)12)15-19(3)47-34)21(5)29(22(6)33(43)49-25)50-26-17-36(9,46-13)31(42)23(7)48-26/h18-26,28-32,34,40-42,44-45H,14-17H2,1-13H3/t18-,19-,20+,21+,22-,23+,24+,25-,26+,28-,29+,30-,31+,32-,34+,35-,36-,37-/m1/s1
#inchikey ULGZDMOVFRHVEP
#Ion_Source LC-ESI
#Instrument qTof
#Compound_Source Isolated
#PI Sirenas
#Data_Collector Ed Esquenazi 
#Scan -1
#Precursor_MZ 734.469
#ExactMass 0.0
#Charge 1
#CAS_Number N/A
#Pubmed_ID N/A
#Smiles N/A
#INCHI_AUX N/A
#Library_Class 3
#SpectrumID CCMSLIB00000006290
#IonMode Positive
#UpdateWorkflowName UPDATE-SINGLE-ANNOTATED-BRONZE
#LibraryQualityString Bronze
#TaskID d19310cd93df49b68e9fcbec27720eb5
##Scan# 7
#SpectrumFile Erythromycin.mgf
#LibraryName fda_library.mgf
#MQScore -1
#Organism fda_library
#TIC_Query 0
#RT_Query -1
#MZErrorPPM -1
#SharedPeaks 0
#MassDiff 0
#LibMZ -1
#SpecMZ 734.469
#SpecCharge 0
#internalFilename spec-00000.mgf

>collision 10
113.059624 29.50065
115.073128 55.451839
116.067978 79.630379
116.105911 259.290314
116.222122 14.82469
116.304184 10.71902
123.080437 81.010384
127.073235 294.106689
158.116959 1731.70105
158.258118 20.48629
158.288956 14.79707
158.369003 11.70224
160.771469 12.17136
176.126297 12.83191
233.148178 16.600969
287.176025 15.16667
316.211426 152.430405
365.226257 11.02021
383.247955 12.56199
384.239746 19.648439
401.24408 40.27813
445.440491 16.343861
482.306183 14.37582
500.32196 29.99107
522.287354 13.84455
522.339783 266.933197
522.512756 14.59032
522.598022 13.03333
522.822693 12.36864
540.230164 11.06782
540.349915 281.553802
542.366333 10.88935
558.362244 644.055176
559.327454 15.50022
572.828064 11.58333
572.960388 10.70223
576.372742 2504.053955
576.605347 19.010099
576.684082 40.48814
576.744202 21.86566
576.808472 10.72768
576.84845 34.83675
576.89209 12.38984
576.920532 22.30583
576.972168 26.05069
577.037842 53.196529
577.138855 12.16974
577.215637 27.77178
577.278076 17.10317
577.635925 25.769171
658.42627 16.91564
698.444885 144.474899
698.694763 10.90873
702.436768 20.74917
716.454651 602.749207
716.566162 14.35439
716.661865 14.08421
716.725708 11.27698
716.778931 20.987341
716.885803 11.08586
717.306458 17.769899
717.503845 12.23449
723.053955 12.62736
729.458862 36.007389
729.545898 29.855209
729.686707 30.87792
729.722534 10.86749
729.78418 50.631561
729.901062 24.880369
730.01001 19.29649
730.12146 19.351219
730.59845 27.17692
730.840027 13.53444
731.243958 23.3433
734.349487 20.63118
734.46814 10672.700195
734.584167 96.305344
734.663269 28.396919
734.715088 74.829773
734.753113 20.914671
734.795349 58.710972
734.86908 44.631561
734.926514 118.968903
735.011353 87.035553
735.076965 62.640751
735.129517 66.105347
735.189758 95.460327
735.267151 114.4711
735.333008 116.580498
735.400696 54.8862
736.052612 20.466669
736.510132 38.681831
736.708313 22.825911
736.839539 47.81794
736.901306 27.195721
737.670776 27.08473
738.270935 27.612711
738.619995 22.159361
739.043274 19.3927
