>compound DIclofenac
>formula C14H11Cl2NO2 
>ionization [M+H]+
>parentmass 296.02356
#inchi InChI=1S/C14H11Cl2NO2/c15-10-5-3-6-11(16)14(10)17-12-7-2-1-4-9(12)8-13(18)19/h1-7,17H,8H2,(H,18,19)
#inchikey DCOPUUMXTXDBNB
#Ion_Source LC-ESI
#Instrument qTof
#Compound_Source Isolated
#PI Sirenas
#Data_Collector Ed Esquenazi 
#Scan -1
#Precursor_MZ 296.024
#ExactMass 0.0
#Charge 1
#CAS_Number N/A
#Pubmed_ID N/A
#Smiles N/A
#INCHI_AUX N/A
#Library_Class 3
#SpectrumID CCMSLIB00000005461
#IonMode Positive
#UpdateWorkflowName UPDATE-SINGLE-ANNOTATED-BRONZE
#LibraryQualityString Bronze
#TaskID d19310cd93df49b68e9fcbec27720eb5
##Scan# 1
#SpectrumFile DIclofenac.mgf
#LibraryName fda_library.mgf
#MQScore -1
#Organism fda_library
#TIC_Query 0
#RT_Query -1
#MZErrorPPM -1
#SharedPeaks 0
#MassDiff 0
#LibMZ -1
#SpecMZ 296.024
#SpecCharge 0
#internalFilename spec-00000.mgf

>collision 10
138.159912 16.102051
147.866653 3.166667
151.050354 77.849861
152.059525 26.20833
177.05278 95.523293
177.690079 4.185606
179.073563 38.381351
211.69693 7.111111
212.699524 5.041667
212.842346 27.08333
212.897568 22.065599
213.019241 6.097222
213.059921 11.03852
213.146255 9.561992
213.171646 12.15123
213.745529 115.148003
213.819504 7.113095
213.839935 46.18111
213.878265 7.2
213.912277 20.951031
213.964752 8.411932
214.042343 2497.935059
214.094009 15.37085
214.133453 22.561199
214.21785 29.796021
214.280853 6.825758
214.306259 22.69927
214.382309 10.75
214.418137 3.490385
214.494308 6.341667
214.590668 33.948811
214.608902 15.06902
214.657211 21.45833
214.684601 34.45929
214.820526 12.62827
214.871521 6.666667
214.922516 9.599999
214.981537 38.973499
214.999741 19.30864
215.049789 15321.44043
215.113846 147.812195
215.14328 14.67432
215.170746 65.853043
215.230927 71.638969
215.250397 32.932232
215.265686 51.792259
215.283524 5.053571
215.294968 44.130821
215.306885 21.26631
215.332932 55.60376
215.345642 17.67778
215.376465 49.118099
215.394455 7.541667
215.422989 65.826073
215.440842 37.687119
215.459427 22.30769
215.504852 44.979622
215.55098 16.16379
215.564789 22.836809
215.632355 45.9799
215.689056 24.523809
215.701874 7.080883
215.71727 16.047621
215.809189 16.74123
215.874512 39.16264
216.117569 3.413462
216.334839 15.62888
216.485992 5.075
216.563522 20.41667
216.914215 4.815476
217.188629 9.926471
217.942123 11.83
222.230011 9.185345
234.889206 6.334677
236.010529 16.741671
247.920822 8.047619
248.363907 2.375
248.399368 41.978168
248.425293 7.413462
248.45163 12.41879
248.480789 11.79167
248.501251 46.71022
248.55069 75.093117
248.585022 49.411461
248.605164 13.03947
248.634232 89.325897
248.666733 67.697617
248.693161 18.20056
248.720398 2.816667
248.743256 23.503679
248.775955 19.14889
248.795547 7.493421
248.837402 9.705247
248.865982 59.403641
248.914322 39.177471
248.945297 16.603069
248.958527 12.10294
248.988388 15.42136
249.039948 21.560551
249.060684 7.472222
249.620361 38.262691
249.714447 9.741667
249.769226 8.698232
249.802872 8.081897
249.955566 139.257202
249.972794 7.444445
250.018524 30355.259766
250.10405 16.054819
250.156754 18.965281
250.184357 25.745489
250.210617 34.841671
250.224136 65.030159
250.246628 159.994705
250.266403 33.199242
250.278137 68.03714
250.314346 8.260802
250.325104 81.311523
250.361023 122.2071
250.416809 107.382103
250.43544 22.102051
250.473648 77.270813
250.501434 12.06838
250.524734 40.285999
250.57608 88.430946
250.596802 19.823811
250.647995 80.225281
250.664276 28.77743
250.712296 24.645281
250.794083 61.784191
250.814178 11.04167
250.838959 13.76476
250.899002 59.10537
251.442184 13.19298
251.62001 9.17385
251.64093 40.42503
251.69194 6.012931
251.741623 11.05833
252.119446 15.66568
252.288361 5.121212
252.504868 6.746795
252.592361 8.005952
253.029358 4.001984
253.212006 8.833333
253.261841 5.37037
253.815765 6.03592
255.460571 9.053572
264.125214 16.799999
272.142456 6.71627
276.047668 2.669444
276.15741 9.688597
276.18631 11.92064
276.22345 26.11792
276.249817 12.33426
276.274109 20.22139
276.321198 14.93426
276.34436 27.303209
276.40506 14.71902
276.426758 8.983334
276.539001 13.76179
276.574005 11.87879
276.619904 7.913725
276.80838 47.544479
276.920959 8.748984
277.017639 12.19853
277.076416 8.340278
277.18158 6.201666
277.425812 38.02116
277.477722 5.722222
277.558136 10.14982
277.623352 35.2803
277.971344 19.631411
278.013245 11607.019531
278.084869 119.764999
278.109009 19.13817
278.133606 51.227951
278.160461 74.895462
278.183197 43.702431
278.221741 78.372131
278.2435 30.763321
278.287994 64.737
278.307373 16.68259
278.328339 30.047409
278.346283 10.66667
278.361053 52.029961
278.388306 35.033619
278.444977 26.040661
278.46402 107.925797
278.509064 21.265869
278.530609 59.649071
278.55365 24.809521
278.615387 19.26685
278.699371 13.85201
278.770782 1.666667
278.828949 29.22566
278.846985 9.160417
278.902466 27.347219
279.200989 9.739865
280.232391 8.782407
280.42868 7.782407
280.522003 20.81909
280.78772 5.482143
281.916199 5.0625
282.597931 3.002451
283.078003 15.70383
283.759186 11.04938
283.858826 13.66759
288.189087 8.671053
293.189209 11.34722
294.172913 8.333333
294.218781 25.12719
294.293579 15.68889
294.391785 20.73498
294.435486 4.333333
294.454102 6.001984
294.57254 11.89352
294.623322 24.355391
294.82962 3.675
294.859467 9.363095
294.980621 11.57407
295.014832 7.880051
295.708374 12.0
295.870911 6.722222
295.947968 32.171051
296.02356 6455.643066
296.096344 70.180382
296.121002 17.705709
296.163208 11.44024
296.193176 17.66927
296.22879 31.630951
296.26001 18.711109
296.277191 17.799999
296.30011 15.22075
296.340515 45.906719
296.38327 33.29652
296.414825 32.716492
296.499359 22.884411
296.516479 7.791667
296.546692 16.79953
296.582672 39.674782
296.649963 16.67083
296.685669 34.307388
296.819855 16.765869
296.859131 32.73373
296.986969 2.625
297.267181 12.81855
297.517792 14.33333
297.673828 6.681667
297.727997 6.677083
297.805908 13.24577
298.094147 16.386749
298.231079 12.44551
298.436615 3.686404
302.133209 6.615
