>compound Maraviroc
>formula C29H41F2N5O 
>ionization [M+H]+
>parentmass 514.335083
#inchi InChI=1S/C29H41F2N5O/c1-19(2)27-34-33-20(3)36(27)25-17-23-9-10-24(18-25)35(23)16-13-26(21-7-5-4-6-8-21)32-28(37)22-11-14-29(30,31)15-12-22/h4-8,19,22-26H,9-18H2,1-3H3,(H,32,37)/t23-,24+,25?,26-/m0/s1
#inchikey GSNHKUDZZFZSJB
#Ion_Source LC-ESI
#Instrument qTof
#Compound_Source Isolated
#PI Sirenas
#Data_Collector Ed Esquenazi 
#Scan -1
#Precursor_MZ 514.335
#ExactMass 0.0
#Charge 1
#CAS_Number N/A
#Pubmed_ID N/A
#Smiles N/A
#INCHI_AUX N/A
#Library_Class 3
#SpectrumID CCMSLIB00000004789
#IonMode Positive
#UpdateWorkflowName UPDATE-SINGLE-ANNOTATED-BRONZE
#LibraryQualityString Bronze
#TaskID d19310cd93df49b68e9fcbec27720eb5
##Scan# 2
#SpectrumFile Maraviroc.mgf
#LibraryName fda_library.mgf
#MQScore -1
#Organism fda_library
#TIC_Query 0
#RT_Query -1
#MZErrorPPM -1
#SharedPeaks 0
#MassDiff 0
#LibMZ -1
#SpecMZ 514.335
#SpecCharge 0
#internalFilename spec-00000.mgf

>collision 10
102.620773 10.76806
105.613091 12.00147
105.692833 10.31136
106.064934 2323.665039
106.107384 23.24003
106.167488 12.84038
106.257614 10.61667
106.304199 9.008696
106.343674 7.045
106.430161 14.01667
106.469276 4.600758
106.702911 7.752084
106.976021 7.200471
110.095779 473.323914
110.226112 9.55
111.480331 12.81956
114.4645 9.600714
115.054047 256.151611
115.408165 9.841666
115.468422 12.472
116.557831 10.78418
116.871468 12.27273
117.069878 3125.0
117.117859 23.101549
117.148773 5.8025
117.209991 10.71229
117.479942 8.25
117.563225 10.40263
117.585968 6.400581
117.849113 15.27349
118.285606 6.000758
119.066116 75.251472
119.290543 11.86993
122.094734 47.275002
122.102982 5.008333
123.500961 4.494231
123.613419 5.544047
124.11187 4075.937988
124.160133 26.463631
124.218864 4.65625
124.254799 8.135811
124.299889 11.45127
124.308556 20.15848
124.326988 5.418182
124.401321 13.93088
124.416115 9.816781
124.423317 13.72246
124.54808 8.4875
124.593605 30.31888
124.689865 9.152381
124.878311 5.800807
124.94442 8.038095
125.041008 5.896429
125.104591 22.55319
126.072388 27.19561
126.104095 14.61622
134.093842 22.40167
147.058929 58.445179
156.076706 15.08152
184.068756 15.41
184.111023 28.456141
188.097946 4.984615
202.097687 33.784039
205.67807 5.10625
214.097748 16.594311
226.15831 27.67881
235.150223 12.60645
235.189438 195.565399
238.313507 6.498
241.471008 7.062069
247.192276 77.551468
252.118896 229.199799
252.681976 9.29847
260.143646 328.100311
260.327545 24.97797
262.806061 28.85747
263.415283 13.63325
274.056671 7.894736
278.301178 23.207529
278.360443 14.14722
278.382812 22.002951
278.406677 19.0753
278.425415 11.80051
278.457245 31.303329
278.48642 46.948078
278.521027 35.640869
278.539948 11.76962
278.557098 27.07795
278.579834 82.22773
278.594269 25.96423
278.624176 14.02415
278.641327 15.17895
278.682068 6.75
278.719208 36.035339
278.760345 19.773609
278.778381 23.362089
278.833405 24.29389
278.868408 12.65931
278.933716 20.282049
279.004089 12.97838
279.194489 9.920333
279.271484 35.537189
279.320496 8.759211
279.642303 12.73921
280.038239 12.21136
280.083557 15.97794
280.10202 33.165611
280.151062 34542.429688
280.391266 30.961861
280.433502 47.64257
280.480164 33.14365
280.503235 85.603111
280.546783 132.775208
280.616028 104.656403
280.639557 20.337061
280.657776 26.04381
280.682037 41.110241
280.704346 54.323761
280.733826 45.09243
280.771729 78.139282
280.814667 32.921101
280.838013 17.57671
280.876221 18.94356
280.898376 79.69796
280.946869 58.614201
280.981689 29.618111
281.05542 16.673479
281.082733 14.08947
281.205414 31.464001
281.297852 7.477778
281.369965 31.830931
281.519104 10.40634
281.649994 19.11466
281.805389 24.714279
282.330719 11.23669
283.161255 7.222272
283.548676 14.54318
283.709991 20.135559
284.72644 9.206451
286.107788 11.4966
291.060028 6.64939
292.520874 18.247351
320.874969 5.04939
321.01593 11.38598
322.891083 17.05818
331.075073 8.279717
348.349152 25.962351
369.187866 6.613333
370.224609 7.118519
380.547577 25.853331
381.02179 19.866671
382.657379 7.063043
382.875458 8.357353
383.059052 20.68643
383.249207 23.215521
383.447083 6.469231
384.183258 7.418939
385.630096 6.803947
386.081604 4.857143
386.245209 10.02935
386.426331 14.88971
386.451141 13.84308
386.511841 18.021761
386.552948 7.832143
386.615112 18.441099
386.639801 12.36739
386.679962 46.521519
386.69873 269.908386
386.738647 161.924301
386.777496 230.836105
386.809601 171.834793
386.84668 200.033295
386.873718 41.42952
386.896851 264.064392
386.946289 156.393005
386.978729 219.644608
387.032379 76.915733
387.057465 239.272202
387.082611 29.088631
387.110657 188.607101
387.171844 143.801697
387.359436 12.86667
387.421906 13.81633
387.507111 25.60894
387.645111 97.971153
387.867706 110.343697
388.000488 61.950371
388.223083 66.299393
388.255219 164127.90625
388.302917 41.760929
388.375549 29.36965
388.403992 67.473328
388.429443 17.44224
388.44989 11.40034
388.474182 20.27224
388.587524 17.668289
388.655823 7.05
388.938263 93.452171
388.967865 35.82225
389.076508 27.07305
389.108582 10.4087
389.153137 139.6539
389.280975 10.6375
389.685059 5.020454
389.813812 85.520813
389.837921 57.98632
389.908783 361.012909
389.960663 242.932007
390.064606 111.545998
390.093567 100.400803
390.128479 42.81089
390.197266 227.759399
390.243073 7502.652832
390.325317 211.030396
390.361664 201.849503
390.443695 30.800289
390.493073 53.16774
390.518799 198.419296
390.582825 111.345901
390.628815 179.3246
390.670227 47.019691
390.747498 97.526016
390.798248 58.763409
390.894165 19.332741
391.050354 68.927834
391.110321 24.61455
391.161652 99.664543
391.27298 9.612755
391.297821 111.115303
391.469727 47.203499
391.599701 38.883369
391.756622 29.14757
391.82663 69.024017
391.885742 24.105881
391.938538 44.1604
391.975281 6.207258
392.004303 38.607281
392.033722 46.676971
392.197845 44.579029
392.3479 10.99457
392.416138 5.952027
392.780792 15.147
392.809387 11.22311
392.887085 15.40033
392.910767 34.327881
393.140991 11.46722
393.374176 20.42853
393.437134 7.120715
393.536316 18.533331
393.722595 17.234039
393.947601 16.10442
393.983429 10.70952
394.162628 9.295
394.645355 7.208333
395.122314 8.135
395.321899 9.518877
395.343201 6.289286
395.891174 8.122561
395.980377 11.98825
396.455414 6.416667
396.575897 9.62645
396.679779 11.29419
397.464966 4.622368
397.80304 4.5125
404.996735 19.384911
405.11499 8.232018
408.412079 4.513637
411.554291 4.847059
415.067719 15.04828
423.281647 10.42581
425.269196 18.87298
482.008301 7.984615
486.324158 29.93421
496.423187 8.108334
508.501953 8.034323
510.818573 23.814619
510.866028 6.251923
510.904907 8.601851
510.945892 8.353125
510.971954 18.75
511.047699 70.682823
511.103394 52.837299
511.152283 76.95961
511.191833 46.71529
511.237122 13.80192
511.296387 44.551281
511.35556 13.10179
511.396729 52.41671
511.425385 18.2736
511.510101 45.497211
511.59671 6.736112
511.632446 18.18026
511.971863 13.225
512.329529 7.200862
512.532471 12.95203
512.564941 6.696154
512.649109 13.48181
512.684082 7.252084
512.725342 9.919068
513.015808 21.674999
513.306519 10.35528
513.370361 6.981097
513.566589 6.065789
513.639526 10.48966
513.992432 7.702084
514.047607 5.85
514.231689 46.505531
514.256653 29.055401
514.335083 28834.839844
514.591003 16.85552
514.637512 34.272449
514.712158 163.553604
514.743774 51.066292
514.771362 204.911102
514.822327 44.993752
514.882202 132.757797
514.937317 150.313797
514.998413 97.816063
515.028503 38.11219
515.04895 136.046906
515.106079 28.4618
515.159302 64.731453
515.476746 58.05426
515.525452 72.001701
515.586304 53.840549
515.624878 49.104408
515.815674 82.536392
515.913086 9.694118
516.286194 9.45
516.385498 21.522421
516.431519 39.713329
517.105042 18.827181
517.21991 14.83345
517.283386 18.23148
517.69812 6.277564
517.834656 14.2125
519.051453 4.804167
519.522339 7.623529
521.42688 10.22241
521.560181 7.370283
538.696411 6.903125
548.01123 11.32911
580.927551 6.433333
740.536682 23.466669
890.039001 6.897581
959.402954 9.25
1135.596069 47.762131
1410.963379 13.95294
