>compound MLS000862190-01!3,7-Dimethyl-1-propargylxanthine
>formula C10H10N4O2
>ionization [M+H]+
>parentmass 219.088211
#inchi InChI=1S/C10H10N4O2/c1-4-5-14-9(15)7-8(11-6-12(7)2)13(3)10(14)16/h1,6H,5H2,2-3H3
#inchikey IORPOFJLSIHJOG
#Ion_Source LC-ESI
#Instrument qTof
#Compound_Source NIH Pharmacologically Active Library
#PI Dorrestein
#Data_Collector VP/LMS
#Scan -1
#Precursor_MZ 219.088
#ExactMass 218.08
#Charge 1
#CAS_Number N/A
#Pubmed_ID N/A
#Smiles Cn1cnc2n(C)c(=O)n(CC#C)c(=O)c12
#INCHI_AUX N/A
#Library_Class 1
#SpectrumID CCMSLIB00000085915
#IonMode Positive
#UpdateWorkflowName UPDATE-SINGLE-ANNOTATED-GOLD
#LibraryQualityString Gold
#TaskID d252d724072548979f1f6f1ced849daf
##Scan# 1289
#SpectrumFile p4-G10_GG10_01_18406.mzXML
#LibraryName Pharm_Active_Library.mgf
#MQScore -1
#Organism Pharm_Active_Library
#TIC_Query 0
#RT_Query -1
#MZErrorPPM -1
#SharedPeaks 0
#MassDiff 0
#LibMZ -1
#SpecMZ 219.088
#SpecCharge 0
#internalFilename spec-00000.mgf

>collision 10
47.127083 188.0
48.91317 204.0
49.042713 88.0
49.659344 152.0
50.753738 152.0
51.390987 180.0
51.468067 84.0
52.124138 164.0
53.123287 172.0
54.227154 92.0
54.444786 72.0
54.528038 176.0
54.617733 100.0
56.447998 140.0
59.081543 116.0
59.19175 152.0
59.361847 140.0
63.186356 180.0
63.246494 236.0
63.800137 144.0
64.413689 96.0
64.543144 144.0
64.92749 160.0
65.300102 48.0
67.285263 168.0
68.273361 244.0
70.444801 144.0
72.223343 212.0
74.65731 104.0
75.642532 180.0
79.452744 136.0
80.117661 212.0
80.438667 164.0
82.736244 236.0
82.90107 248.0
83.205811 60.0
84.346245 212.0
84.452301 232.0
85.487076 144.0
86.295029 128.0
86.398598 160.0
87.292641 144.0
89.282494 144.0
90.225327 184.0
92.391579 284.0
92.78611 144.0
92.83213 48.0
92.983696 160.0
93.799255 196.0
94.051949 144.0
94.678398 180.0
95.023445 136.0
95.040909 36.0
95.12825 180.0
96.497879 132.0
96.595665 164.0
96.928505 176.0
98.678398 224.0
98.692238 100.0
98.719925 224.0
99.099991 128.0
99.649597 172.0
99.685989 204.0
99.812592 156.0
99.87027 64.0
99.931938 200.0
102.70668 176.0
103.05999 260.0
103.074135 100.0
103.235855 136.0
105.904152 164.0
106.464081 128.0
107.061615 188.0
107.165543 48.0
107.877586 104.0
108.05249 124.0
108.065788 420.0
109.000969 216.0
109.039146 580.0
109.064629 184.0
109.729492 176.0
109.938087 128.0
110.071358 2124.0
110.132256 88.0
110.240906 156.0
111.051147 224.0
111.071587 524.0
112.976517 180.0
113.061157 120.0
113.321625 164.0
113.465752 184.0
115.057175 88.0
116.93071 84.0
117.042656 84.0
117.062042 188.0
117.21714 116.0
117.370193 192.0
118.47683 112.0
118.682739 104.0
119.051643 208.0
119.734543 224.0
120.057091 152.0
121.062393 176.0
122.074081 164.0
123.042686 2000.0
123.109856 64.0
123.720139 96.0
124.050713 376.0
124.070175 68.0
124.167747 36.0
125.787621 208.0
130.026199 56.0
130.976624 40.0
131.293442 188.0
133.062302 136.0
134.039871 144.0
135.069595 144.0
136.052216 436.0
136.205444 192.0
137.056961 156.0
137.957886 56.0
138.037888 220.0
138.066299 9568.0
138.103317 208.0
138.205811 32.0
138.283035 72.0
138.311127 32.0
138.653091 92.0
138.934479 48.0
139.068405 648.0
139.865082 96.0
140.154755 72.0
140.909805 44.0
140.957062 160.0
141.910995 44.0
141.948944 36.0
148.083755 356.0
148.200348 72.0
148.858261 292.0
149.092499 200.0
150.062744 160.0
151.057617 260.0
156.098328 140.0
158.071564 280.0
159.059067 140.0
161.042221 152.0
163.063416 292.0
163.179611 60.0
165.076752 144.0
179.05661 136.0
181.070755 472.0
181.892014 136.0
186.91922 144.0
188.391571 156.0
200.13887 136.0
204.060913 144.0
219.088211 1372.0
219.458191 76.0
220.523911 68.0
249.35257 116.0
334.972992 196.0
368.698456 60.0
368.72522 104.0
624.776611 92.0
889.050232 180.0
962.298157 52.0
1052.287598 228.0
1058.249023 124.0
1061.787354 160.0
1066.533691 180.0
1115.828857 88.0
1126.879639 176.0
1157.749756 192.0
1165.265747 148.0
1170.871094 196.0
1181.403564 244.0
1185.251587 240.0
1222.028442 172.0
1225.7677 208.0
1238.602295 140.0
1251.327759 160.0
1264.295288 156.0
1284.888184 172.0
1288.422241 208.0
1309.584473 204.0
1311.335449 136.0
1330.737671 232.0
1331.529175 216.0
1334.370483 228.0
1372.475464 148.0
1376.711304 228.0
1395.332764 156.0
1402.032227 180.0
1408.732788 180.0
1416.842529 124.0
1417.374512 136.0
1418.791138 104.0
1425.990112 124.0
1429.871094 236.0
1432.898193 84.0
1438.69043 120.0
1445.364502 184.0
1447.014526 212.0
1455.704346 252.0
1456.980469 232.0
1459.306152 160.0
1499.805664 152.0
