>compound Docetaxel
>formula C43H53NO14 
>ionization [M+H]+
>parentmass 808.3538818280905
#inchi InChI=1S/C43H53NO14/c1-22-26(55-37(51)32(48)30(24-15-11-9-12-16-24)44-38(52)58-39(3,4)5)20-43(53)35(56-36(50)25-17-13-10-14-18-25)33-41(8,34(49)31(47)29(22)40(43,6)7)27(46)19-28-42(33,21-54-28)57-23(2)45/h9-18,26-28,30-33,35,46-48,53H,19-21H2,1-8H3,(H,44,52)/t26-,27-,28+,30-,31+,32+,33-,35-,41+,42-,43+/m0/s1
#inchikey ZDZOTLJHXYCWBA
#Ion_Source LC-ESI
#Instrument qTof
#Compound_Source Isolated
#PI Sirenas
#Data_Collector Ed Esquenazi 
#Scan -1
#Precursor_MZ 808.35
#ExactMass 0.0
#Charge 1
#CAS_Number N/A
#Pubmed_ID N/A
#Smiles N/A
#INCHI_AUX N/A
#Library_Class 3
#SpectrumID CCMSLIB00000005881
#IonMode Positive
#UpdateWorkflowName UPDATE-SINGLE-ANNOTATED-BRONZE
#LibraryQualityString Bronze
#TaskID d19310cd93df49b68e9fcbec27720eb5
##Scan# 2
#SpectrumFile Docetaxel.mgf
#LibraryName fda_library.mgf
#MQScore -1
#Organism fda_library
#TIC_Query 0
#RT_Query -1
#MZErrorPPM -1
#SharedPeaks 0
#MassDiff 0
#LibMZ -1
#SpecMZ 808.35
#SpecCharge 0
#internalFilename spec-00000.mgf

>collision 10
104.515625 7.757576
105.032227 2321.35791
105.068886 168.909897
105.087448 5.469444
105.191238 10.37255
105.215256 10.09643
105.272598 10.00154
105.313148 7.375
105.319016 12.3913
105.350311 25.373461
105.458305 10.64015
105.494034 19.69318
105.518684 11.79167
105.533447 6.160715
105.672821 14.80278
105.952812 20.038931
107.050591 33.33382
107.083809 132.832001
109.061104 10.00521
109.268288 4.394608
111.045502 44.83046
114.255028 2.666667
115.050446 69.817398
118.064911 75.202187
119.083191 84.783928
119.463287 12.16447
120.606728 5.668011
121.061623 343.80011
121.098923 233.809494
121.206558 11.45
121.291573 17.000681
121.299232 1.672619
121.379662 4.337121
121.50238 17.01766
123.041817 68.958504
123.078644 82.619331
123.115379 129.1091
123.777008 6.633772
127.071068 24.1201
132.487137 6.306818
133.034912 11.25338
133.06163 387.196289
133.097992 179.204102
133.282806 6.05
133.340302 6.906746
133.413147 17.388611
133.442566 19.37879
133.483704 11.67302
133.664627 13.66752
133.974503 6.333333
134.026871 5.336111
135.040604 30.08654
135.075836 53.021778
135.116135 21.73035
135.254013 6.755556
135.776443 2.0
136.073227 364.509613
136.154007 11.93895
136.186172 13.32237
137.052612 23.00177
137.094376 102.891296
137.227463 14.36333
139.072525 43.91959
139.115417 3.111111
143.083755 19.32752
145.063782 112.875603
145.097351 73.041656
146.474258 8.458333
146.663818 10.10227
147.078903 168.461594
147.122437 14.57615
147.442139 4.333333
148.395935 11.72436
148.421387 2.386905
149.057755 562.215088
149.093872 353.323608
149.206787 4.061275
149.249283 18.338079
149.346008 44.54834
149.457565 11.00595
149.615005 12.03571
150.224365 5.906746
150.865616 3.125
151.074524 112.034203
151.111313 214.815002
151.170074 1.875
151.189621 3.857143
151.233139 4.259615
151.26207 19.04891
153.050613 10.18534
153.193512 12.07407
153.325394 19.52632
154.077087 15.83841
157.098907 104.050201
158.720062 9.1875
159.078476 82.485512
160.16037 3.708333
161.057343 49.62421
161.09198 147.513107
161.218765 13.91325
161.241089 15.93817
161.326096 9.426724
162.052567 58.001068
162.160995 7.403736
163.071426 132.529495
163.109344 93.64785
164.226593 2.14881
164.477249 6.7
165.053589 678.549927
165.105057 4.683333
165.245575 4.009259
165.402283 3.041667
165.420044 4.678571
165.733627 15.93817
166.096313 11.67222
167.063263 14.93426
167.130676 4.013889
167.214645 2.4
169.41745 7.00463
171.073242 24.18391
171.475357 7.347222
173.054764 9.122475
173.092346 162.468201
173.150543 2.333333
173.255524 2.341667
173.439056 11.68883
173.826065 21.66733
174.208084 3.444444
175.073395 91.98127
175.108612 135.213898
175.165695 2.416667
175.848099 4.342593
176.236084 3.490385
177.054245 320.548615
177.086746 411.694489
177.138138 3.185606
177.313538 13.14881
177.346069 25.00901
177.434006 4.666667
177.44429 4.115741
177.494247 10.04412
177.675385 7.714285
177.906616 5.208333
178.254471 23.68627
178.985138 4.34375
179.067963 134.161407
179.107025 226.094193
179.207336 16.075239
179.304474 2.75
179.441544 14.00059
179.511475 16.736111
179.531021 6.708333
179.814545 16.490419
180.029846 25.627911
180.06311 753.416687
180.09082 78.212303
180.243988 6.666667
180.343033 33.31657
180.436157 8.148809
180.879745 4.008333
181.007126 3.75
181.080109 38.560181
181.116364 53.067879
181.144562 4.125
181.238556 3.815476
181.295547 7.3
181.314911 34.047119
181.324493 6.671053
181.390091 14.6832
181.427673 69.899513
181.7229 8.0
181.802719 10.73016
181.999695 16.774
182.024536 6.160088
182.047455 81.985527
182.07872 5896.89502
182.135834 22.58383
182.150208 4.865196
182.182266 17.86396
182.196869 12.66667
182.210922 5.061275
182.222549 6.852941
182.23912 7.805555
182.286102 12.00765
182.297943 22.602739
182.366348 13.88741
182.386398 39.597198
182.466278 4.387821
182.491028 70.858742
182.53447 6.166667
182.626282 30.117701
182.637115 45.517731
182.652649 10.74167
182.672394 19.273439
182.713776 6.408951
182.774658 20.05921
182.816666 10.29167
183.113083 94.174072
183.448532 8.45
183.478027 4.387821
183.716766 3.335526
183.962128 9.688597
184.176178 5.265351
184.552307 6.35307
184.861267 12.41554
185.091492 85.564667
185.130569 27.61364
185.231995 17.82353
187.072113 139.126404
187.10878 112.196198
187.323547 8.45
188.679169 5.510417
189.052307 57.857361
189.087097 28.5947
190.934769 9.032609
191.065826 2.816667
191.104645 262.489502
191.488388 9.490196
191.551987 27.02976
192.066132 8.375
192.36322 12.00278
193.087448 68.073753
194.038223 7.435606
195.062607 38.058521
195.075836 47.680271
195.104355 145.496994
195.184967 20.11846
195.801727 25.80357
197.076096 32.917969
197.089127 91.430656
197.130081 76.046272
197.744141 10.96491
197.924591 5.006944
199.068985 36.603779
199.109879 75.941269
199.134476 11.81341
199.518219 5.453432
199.545456 3.958333
201.088013 64.306023
201.125198 85.642761
203.062286 27.668751
203.102783 89.020416
203.140732 18.864031
205.125305 8.818548
206.075027 66.856293
207.061508 89.651237
207.097061 59.985859
207.922424 29.217819
208.05632 480.564789
208.215149 18.523809
208.250656 19.91268
208.401291 9.773936
209.090164 169.558807
209.125809 38.810848
210.864365 11.64031
210.961349 11.9631
211.089783 28.523809
211.109085 198.669998
211.142899 21.875
211.567139 4.041667
211.708847 4.0
211.992401 15.70249
213.068069 68.768356
213.085724 117.9543
213.123566 18.51306
213.3927 3.375
215.106216 23.20833
215.144882 31.33333
217.116257 114.8395
219.097992 17.979799
219.674133 16.546671
219.866425 4.387821
220.286911 10.16071
220.804855 6.673611
221.072357 30.58333
221.083679 9.88469
221.128662 22.804489
221.694519 12.67803
223.111359 138.021698
223.135773 15.05
223.266754 8.001068
224.006317 16.83046
224.083649 15.40064
224.700195 13.81349
224.735031 9.142858
224.785156 30.54723
224.948105 26.40225
225.071182 66.762207
225.090683 137.684601
225.121841 49.13829
225.157715 74.943153
225.644989 3.266667
225.909897 18.721991
226.068695 4597.811035
226.147247 9.811111
226.205536 31.679489
226.244888 41.19669
226.265793 10.78241
226.286636 7.455883
226.310974 20.31636
226.362961 25.386749
226.407837 26.135509
226.438812 20.920641
226.459396 12.04167
226.490723 4.0
226.516632 7.098485
226.5681 29.08003
226.673676 7.647436
226.836456 12.89943
226.920319 17.171829
227.104309 29.69697
227.137344 101.685402
227.329239 17.00543
227.579803 16.03587
227.718338 15.22685
228.484665 7.671297
229.08226 93.667023
229.116119 14.67778
229.886154 14.73848
230.12056 76.737038
231.09671 38.776321
233.108948 78.900673
234.097992 22.002689
235.111206 22.736111
235.146729 89.083282
237.070114 46.3568
237.124268 221.908295
237.158478 108.808403
237.190094 3.333333
237.495575 9.058333
237.881744 10.07407
238.142395 56.21402
239.060226 3.640152
239.085327 18.038521
239.101105 189.673203
239.137985 252.533203
239.418793 8.003623
241.119308 338.401886
241.187637 12.075
241.538727 5.670455
241.652557 15.77778
242.46434 6.7
242.892715 13.71078
243.099731 73.332848
243.92894 4.5
245.117065 65.890213
247.102127 14.02042
247.1474 43.446671
247.446304 6.673077
247.909866 6.888889
248.28978 6.668333
249.12793 88.783119
249.614456 3.402778
251.070053 15.82692
251.099854 201.660995
251.138519 38.52219
251.78804 4.802778
253.110489 41.277859
253.155273 238.575806
253.430573 4.002778
253.826172 6.633772
254.606018 2.339286
255.08725 149.835602
255.136154 237.124802
255.162231 37.854172
257.111053 64.274841
257.147797 113.815804
257.255188 4.002193
257.562164 6.449713
259.131897 133.709198
259.301666 8.468333
259.387878 8.881667
263.141083 510.873688
263.316681 2.005952
263.370789 7.054487
263.508667 10.39701
263.68454 7.921875
263.740234 9.561992
263.84198 2.336539
264.069366 9.711021
264.119904 7.041667
264.70755 5.814815
265.118439 132.118393
265.149567 62.508781
265.352875 6.399193
265.99646 3.166667
267.107544 10.32328
267.13446 239.286407
267.348022 8.226851
268.152008 3.333333
269.076599 83.598518
269.114685 1027.06897
269.151093 37.58865
269.182892 4.673233
269.197571 7.666667
269.261261 7.111111
269.357574 16.761789
269.420593 14.39167
269.493469 14.58333
269.555847 2.482143
269.637939 7.779321
270.328918 14.33412
270.458862 2.815476
271.095978 98.071007
271.134491 25.41523
271.16629 233.630203
271.51651 6.633772
272.443573 13.00556
273.112732 136.191299
273.147552 30.840019
273.388123 12.04167
275.086639 48.388569
279.134735 104.508698
279.432068 7.160088
281.119171 3.691667
281.149506 1037.902954
281.221893 4.364899
281.241669 3.333333
281.282532 7.2
281.504303 7.880051
281.708832 3.686404
282.130463 22.48563
282.818665 3.761364
282.936188 33.0
283.127594 112.699402
283.169678 45.80328
283.357635 13.21333
283.457184 3.703704
284.031464 7.033602
284.237091 16.181499
284.301239 6.012931
284.389404 5.047619
285.088196 27.94833
285.106476 34.120491
285.146393 274.253387
285.375671 6.095238
285.425903 24.59333
285.978058 11.88005
286.104736 948.160522
286.176727 2.14881
286.249969 6.868333
286.281982 4.225
286.888397 4.898148
286.90564 8.002192
287.006531 2.720238
287.125275 441.803802
287.288971 8.507184
287.356476 14.12927
287.38028 5.875
287.500488 8.683333
287.607361 7.342949
287.760773 10.85799
287.810455 14.22635
289.13797 29.30657
289.285919 4.225
289.510254 11.89387
290.63559 3.0
290.734344 7.925926
290.891174 12.40741
291.086914 15.97762
291.134918 768.565613
291.229431 23.337959
291.247192 10.67803
291.318451 11.11111
291.350159 7.94697
291.419403 13.66745
291.532318 14.76025
291.752075 11.35294
294.11084 5.333333
296.195831 12.85227
296.616394 8.518678
297.147766 89.69455
297.167206 4.675
297.40979 10.75758
297.699768 3.335784
298.721863 15.13039
299.10849 84.173843
299.16275 1049.468994
299.310669 5.367424
299.33316 31.167089
299.485901 13.73177
299.526917 5.558333
299.55899 12.73485
299.684601 17.81175
299.851349 3.111111
299.87146 14.98409
299.955658 7.025641
300.787323 5.714285
301.137939 77.780144
302.601074 16.281429
303.118774 65.315392
305.129456 102.691498
305.214325 1.720238
306.83197 3.782408
306.925293 7.272727
307.193054 32.085621
307.302582 5.346264
307.320679 4.055556
307.419922 12.23184
307.558777 6.363426
307.729706 13.3447
308.273041 7.560484
308.364746 7.35307
308.45517 5.629902
308.688507 4.681667
308.723511 33.862011
309.145569 3660.99707
309.208313 10.175
309.244965 9.636906
309.299316 20.186399
309.320984 24.88703
309.424255 3.226852
309.452911 14.0498
309.471619 8.003205
309.50946 4.666667
309.538666 20.408331
309.631042 21.096889
309.6492 6.774123
309.689484 27.29464
309.765686 30.14538
309.838654 3.380953
309.96875 17.40749
310.648071 9.230769
310.800934 6.070402
310.878845 2.893518
311.125275 98.268173
312.083832 43.572041
312.90802 12.87076
313.087006 28.35355
315.13205 4.782407
315.152191 26.69903
315.201599 4.340278
315.468292 6.037281
317.132629 4.083333
317.169983 103.651703
317.250244 18.19009
317.345184 3.208333
317.397919 13.7619
319.148193 133.973099
319.254303 25.600439
319.384308 8.408951
319.467224 29.2616
320.87851 14.9481
321.421356 2.4
323.158325 48.73278
325.092194 5.827381
325.110901 12.08265
325.167816 13.89556
325.19873 4.675
325.230072 10.67465
325.247803 44.177971
325.403473 29.791309
325.437164 3.675926
325.465576 2.367424
325.729828 23.40246
326.115295 7.789216
326.587982 14.01351
326.989136 9.0157
327.113007 74.673393
327.155579 6425.631836
327.257202 33.847549
327.303772 8.213384
327.341034 32.68523
327.374847 56.00481
327.417725 15.31468
327.457733 22.35227
327.505371 29.151529
327.524017 22.594839
327.542969 4.355392
327.571594 42.0513
327.649994 4.688725
327.700378 4.388158
327.738159 2.35
327.77652 35.79351
327.795013 13.00093
327.813782 17.885969
327.854431 33.27861
327.908234 15.33602
327.942017 7.355555
327.964935 19.677191
328.261566 2.003788
328.482391 11.6
328.670929 5.054824
328.941986 6.133333
328.999268 10.85417
329.135803 166.167206
329.289398 4.844298
329.415588 3.337121
329.718719 10.70076
329.901123 11.7037
330.09314 543.168091
332.899933 5.884804
333.596191 9.349638
333.679077 4.773809
333.884521 5.884804
335.156372 31.41818
335.194244 17.48007
339.1539 34.0947
340.318817 4.416667
341.165009 105.435501
342.866547 13.42014
342.995422 13.47756
343.015106 16.360121
343.084473 7.055555
343.146057 18.61256
343.272522 17.81818
343.317627 7.486111
343.411316 5.541667
343.472351 7.35
343.988434 15.12097
344.323944 5.333333
344.421082 9.729167
344.898712 6.75
345.120209 104.913498
345.165222 3169.674072
345.234741 5.333333
345.254242 64.761177
345.273193 7.868333
345.319946 21.261181
345.3526 12.7555
345.377686 15.56199
345.46106 19.766069
345.488495 27.159849
345.529877 4.347222
345.600006 11.61191
345.65564 2.816667
345.719696 4.682971
345.797333 9.240384
345.937164 2.893518
345.972015 13.52381
346.418671 8.673612
346.557129 2.893518
347.148743 239.7612
347.235504 3.733333
347.255676 18.87097
347.474884 8.0
348.395935 2.416667
348.623657 2.669872
349.087036 10.54688
349.2995 2.669444
349.399933 22.39959
350.998566 3.668651
351.152405 6.218137
353.166412 70.048073
358.000519 6.671053
359.132904 6.008333
359.180817 161.586502
359.384674 19.690479
360.056091 10.06127
360.098114 10.07692
361.120758 14.43717
363.177826 417.014801
363.289062 4.833333
363.522552 6.160088
363.856201 3.055556
364.767914 3.266667
365.153442 101.391403
365.303619 8.281667
365.638824 3.266667
366.895172 6.705246
367.215607 18.021429
367.335083 11.39054
369.166229 349.216797
369.579498 11.63516
373.140442 42.44445
377.197632 16.803329
377.303375 10.41667
379.184509 24.398939
381.186707 57.929008
381.74231 8.380815
384.677521 17.840231
384.738892 8.335
384.77301 3.666667
385.512207 19.716669
386.255249 6.015
386.285187 9.698077
386.604401 18.29167
387.134338 11.75
387.176239 2255.510986
387.240295 42.911999
387.308899 6.352941
387.404755 6.05
387.462433 31.71209
387.54718 46.488941
387.596497 14.40056
387.640411 13.00962
387.678528 24.680941
387.802002 11.37281
387.846008 8.506945
387.876251 3.518939
387.921844 20.510441
388.000702 8.396825
388.233734 4.002193
388.631256 7.401515
388.844025 10.83841
388.885193 7.675388
389.168701 28.815041
391.152649 19.130951
391.502594 3.355392
401.032288 10.39167
402.685303 7.291667
402.733948 10.00167
402.888458 10.64015
403.176361 66.659111
404.710236 23.7861
405.187042 2229.771973
405.265228 4.684524
405.286255 11.69207
405.41037 12.3799
405.531555 33.23167
405.608398 32.09856
405.649231 15.22602
405.685547 2.669444
405.758392 6.25926
405.811676 11.34167
406.235779 2.041667
406.295898 15.77778
406.318878 15.17729
406.37265 27.281179
406.502289 3.333333
406.98288 4.666667
407.095245 2.761364
407.50235 13.6716
408.053436 10.38075
409.168579 13.69482
413.171844 166.052307
413.19455 9.5
413.572021 27.06839
413.83316 17.370371
414.010101 7.486111
414.229584 7.673611
414.731171 28.21126
421.118896 10.6875
421.18869 33.13398
423.158234 25.41416
423.194336 117.685898
424.193451 87.406609
425.233856 6.667793
429.44812 7.720238
431.123108 13.94565
431.18103 1224.509033
431.255951 6.881119
431.452545 29.734131
431.49646 6.537037
431.542084 12.41554
431.59436 14.18702
431.691406 27.451851
431.722076 12.66733
431.844971 5.054824
431.884705 3.333333
431.973236 7.296568
431.995667 18.65337
432.973297 21.01827
435.177307 17.20577
436.818573 5.121212
445.462341 8.668651
445.7341 3.669872
446.505646 7.027778
447.080414 29.347521
447.360809 12.83854
447.74942 3.733333
448.21283 7.605556
449.191406 2020.540039
449.285065 4.422619
449.312164 12.44444
449.340912 8.047619
449.377167 7.736842
449.482727 6.15
449.562256 33.568581
449.622864 16.96818
449.706177 25.339199
449.842163 17.60746
449.915741 2.761364
449.967316 26.150551
450.421295 6.791667
450.786285 6.177631
451.167999 42.038212
452.192535 28.29389
453.96109 8.676282
458.164886 31.51894
462.091309 11.42846
463.206299 30.0
464.450317 6.98077
464.521729 44.989479
465.642792 6.095238
466.679352 6.403736
467.20166 1199.602051
467.260193 17.23077
467.393585 6.361111
467.49115 9.742284
467.581604 2.670455
467.651642 28.764681
467.742798 30.054211
467.787964 14.0875
467.831421 10.12531
467.9552 7.592949
468.06366 9.35307
468.720154 17.853809
469.186951 35.981838
469.290771 8.796875
469.637543 4.416667
472.968597 5.814815
473.185547 108.846703
481.01416 5.44079
482.206726 9.888888
485.212158 3.003205
488.201294 10.8443
490.105835 20.00062
490.210083 110.270599
490.267822 3.041667
490.691345 1.672619
491.199799 622.006775
491.305603 5.34375
491.345856 2.816667
491.415436 7.844298
491.801941 11.69697
492.087341 23.727409
496.216766 6.125
505.805847 14.87907
505.959442 37.54504
506.702393 22.25984
508.230011 97.941528
508.309143 22.125401
509.121002 24.627489
509.211304 2196.304932
509.454651 7.444445
509.517151 72.511581
509.615723 64.77681
509.644196 7.453432
509.682526 7.0
509.761078 34.100121
509.787506 23.487671
509.843384 33.12022
509.887573 34.7603
509.934113 8.214286
509.992615 14.60922
510.413208 6.00926
510.463623 13.40909
510.995422 16.49667
511.089355 3.66886
511.979279 18.073071
515.832947 7.5625
516.20105 43.852379
516.307678 15.21338
516.560974 2.367424
523.599182 3.080128
523.822083 9.094697
524.115051 10.04167
524.156555 9.667553
524.292786 10.22685
524.77002 3.36218
524.897522 9.367424
525.296509 23.04808
526.243408 65.450539
527.171509 15.02419
527.222595 2411.486084
527.314087 9.097985
527.339294 4.341667
527.435181 5.675926
527.46582 32.533501
527.515015 12.6681
527.546814 8.768939
527.616394 30.96579
527.657959 31.74621
527.801514 13.51379
527.906616 4.666667
527.948486 19.12208
528.042786 48.350109
528.08252 13.40858
528.138489 2.666667
528.362366 11.00298
530.814331 8.680555
534.407349 16.312941
535.767212 11.91667
537.630676 10.76179
550.247559 18.90991
552.204346 117.866402
552.796082 7.686274
557.221985 12.04545
567.224304 18.934999
567.266113 3.111111
568.202637 15.77976
568.250427 72.55249
570.240356 5.354167
586.257141 264.343597
587.812744 4.761905
595.306335 3.66886
612.230835 93.482094
612.780151 5.002778
613.04071 11.70076
630.252197 82.387703
630.278259 23.53186
630.816895 9.04344
638.248047 13.67465
648.266724 46.44669
649.37793 7.272727
650.247986 11.56944
656.936157 11.24575
668.820923 20.0375
672.269104 66.409843
674.257935 6.054825
675.453979 4.387821
690.232056 15.03712
690.28064 310.356812
690.472351 9.294118
690.551941 7.335
690.689087 5.013889
692.25531 31.16374
698.242859 9.921875
708.217834 40.813801
708.291321 458.497498
708.687256 7.680555
708.753235 6.25
708.832397 30.267691
709.429382 8.351191
709.893127 14.81019
716.259827 173.087097
716.926575 9.007978
730.301147 4.297619
730.370728 5.721154
734.275085 246.918396
734.49823 8.810714
734.55481 13.22756
734.677368 8.667483
734.782043 13.65333
745.874695 6.668104
747.542419 8.506945
749.508484 11.41182
752.283752 954.031799
752.374512 4.680556
752.556152 8.055555
752.616577 8.108871
752.672546 29.554859
752.715271 3.893518
752.801025 26.230619
752.916077 4.854167
752.950378 13.49071
753.002258 24.34333
753.055725 38.985161
753.763062 16.653851
753.876892 4.678571
754.125244 7.673611
754.889709 12.03
756.053894 26.826269
756.171082 7.670455
756.248718 9.1875
765.34491 45.645031
767.530457 9.053572
786.937073 3.666667
802.612915 35.22427
802.70874 28.340281
802.786682 14.70492
803.003967 22.41048
803.058533 40.275169
803.141541 7.486111
803.237061 9.856884
803.342346 38.153961
803.398315 8.422101
803.477905 14.7555
804.132141 33.668652
804.246643 25.509439
804.82843 17.746691
804.88092 4.291667
805.65741 6.408333
805.945129 13.36222
807.702698 6.430555
808.274292 55.656399
808.347168 5808.125
808.472778 166.705399
808.532593 58.030312
808.619385 110.934898
808.682129 25.95417
808.726379 48.788181
808.854858 93.532143
808.929321 91.605667
809.256592 58.50808
809.673462 48.66581
809.790344 13.67816
810.15094 14.42017
810.311462 25.82843
810.574036 19.790951
810.620483 8.573413
810.756409 19.71204
811.021301 31.35
811.196594 17.028851
811.414734 12.33642
811.454346 4.341667
812.138489 9.010715
812.561768 11.69246
814.339661 5.367424
814.932678 16.453699
815.893921 9.669444
825.07843 18.50379
849.074158 16.825001
851.607056 3.115741
873.454285 14.55648
878.222839 6.25926
961.379395 6.339743
1460.717529 5.427083
