>compound MLS001048858-01!3,5-dichloro-4-methoxybenzoic acid
>formula C8H6Cl2O3
>ionization [M+H]+
>parentmass 220.977
#inchi InChI=1S/C8H6Cl2O3/c1-13-7-5(9)2-4(8(11)12)3-6(7)10/h2-3H,1H3,(H,11,12)
#inchikey XSYZTYQXKIXPRC
#Ion_Source LC-ESI
#Instrument qTof
#Compound_Source NIH Natural Product Library
#PI Dorrestein
#Data_Collector VVP/LMS
#Scan -1
#Precursor_MZ 220.977
#ExactMass 219.969
#Charge 1
#CAS_Number N/A
#Pubmed_ID N/A
#Smiles COc1c(Cl)cc(cc1Cl)C(=O)O
#INCHI_AUX N/A
#Library_Class 3
#SpectrumID CCMSLIB00000079518
#IonMode Positive
#UpdateWorkflowName UPDATE-SINGLE-ANNOTATED-BRONZE
#LibraryQualityString Bronze
#TaskID b1d8e8f6646f4e71acdff9ca3d919d08
##Scan# 2071
#SpectrumFile p1-E07_GE7_01_17927.mzXML
#LibraryName NIH_Natural_Products_Library.mgf
#MQScore -1
#Organism NIH_Natural_Products_Library
#TIC_Query 0
#RT_Query -1
#MZErrorPPM -1
#SharedPeaks 0
#MassDiff 0
#LibMZ -1
#SpecMZ 220.977
#SpecCharge 0
#internalFilename spec-00000.mgf

>collision 10
96.11837 168.0
96.981453 364.0
98.962585 220.0
98.999702 1272.0
100.004776 148.0
100.996346 192.0
101.150787 132.0
102.031136 52.0
107.04924 528.0
107.419952 152.0
109.020409 100.0
110.997253 168.0
111.913368 224.0
112.007492 636.0
112.252609 76.0
112.704315 124.0
114.729057 176.0
115.271179 124.0
117.905838 128.0
118.622253 100.0
124.385109 164.0
124.951775 148.0
124.978477 204.0
125.98642 248.0
126.652802 120.0
126.995575 1080.0
128.378845 36.0
128.857376 56.0
128.990005 168.0
129.158035 116.0
130.914673 164.0
132.981384 60.0
133.289108 156.0
134.488953 208.0
136.513794 132.0
139.006302 180.0
139.269241 56.0
142.016708 2508.0
142.936005 204.0
143.019501 136.0
143.295532 92.0
143.906097 136.0
144.015213 432.0
150.244095 112.0
152.95929 164.0
155.182663 136.0
158.891327 168.0
159.685089 108.0
159.947769 196.0
160.947617 148.0
161.941452 212.0
161.963333 620.0
162.968842 44.0
163.96196 380.0
164.290161 96.0
171.005447 72.0
172.957779 188.0
178.982437 112.0
187.931671 140.0
189.969849 132.0
201.923203 224.0
202.963425 232.0
202.985168 64.0
204.962921 132.0
213.13858 32.0
221.189224 100.0
277.296906 60.0
278.165924 120.0
294.880829 116.0
435.337769 52.0
456.805786 20.0
954.601318 156.0
997.175964 108.0
1021.322449 60.0
1147.708984 184.0
1163.792114 176.0
1167.692627 140.0
1193.762207 60.0
1195.674683 60.0
1225.826904 200.0
1263.857788 172.0
1284.552856 192.0
1436.76416 32.0
1444.522339 20.0
1447.2771 72.0
