>compound Riboflavin
>formula C17H20N4O6 
>ionization [M+H]+
>parentmass 377.146
#inchi InChI=1S/C17H20N4O6/c1-7-3-9-10(4-8(7)2)21(5-11(23)14(25)12(24)6-22)15-13(18-9)16(26)20-17(27)19-15/h3-4,11-12,14,22-25H,5-6H2,1-2H3,(H,20,26,27)/t11-,12+,14-/m0/s1
#inchikey AUNGANRZJHBGPY
#Ion_Source LC-ESI
#Instrument qTof
#Compound_Source Isolated
#PI Sirenas
#Data_Collector Ed Esquenazi 
#Scan -1
#Precursor_MZ 377.146
#ExactMass 0.0
#Charge 1
#CAS_Number N/A
#Pubmed_ID N/A
#Smiles N/A
#INCHI_AUX N/A
#Library_Class 3
#SpectrumID CCMSLIB00000005496
#IonMode Positive
#UpdateWorkflowName UPDATE-SINGLE-ANNOTATED-BRONZE
#LibraryQualityString Bronze
#TaskID d19310cd93df49b68e9fcbec27720eb5
##Scan# 3
#SpectrumFile Riboflavin.mgf
#LibraryName fda_library.mgf
#MQScore -1
#Organism fda_library
#TIC_Query 0
#RT_Query -1
#MZErrorPPM -1
#SharedPeaks 0
#MassDiff 0
#LibMZ -1
#SpecMZ 377.146
#SpecCharge 0
#internalFilename spec-00000.mgf

>collision 10
100.049385 13.50658
103.053795 352.874115
103.566528 21.23472
105.042702 101.107498
113.002434 39.09267
116.049133 130.254501
117.055069 169.760895
118.065956 251.368301
118.113144 2.6125
128.05011 12.1225
129.046112 44.92205
130.06575 289.039795
130.115082 5.889423
131.065353 104.448196
131.259964 25.785721
132.077026 72.500526
136.650085 30.78125
142.050079 61.145599
144.527496 13.0
145.075577 780.052124
145.235168 5.504167
145.248428 30.489861
145.256134 8.020833
145.297531 27.675871
145.387131 6.833333
145.48259 6.520833
146.693619 15.00781
147.088852 143.157501
147.425064 15.96976
155.056763 75.71991
156.050919 28.331369
156.077835 6.340278
156.205597 4.6
157.073746 363.434296
157.277115 66.894691
157.696075 16.09524
157.932007 12.12981
158.096924 70.018753
159.090668 565.86731
159.149734 3.0625
159.36499 3.125
159.483871 12.675
160.110489 43.560051
162.078506 75.347221
167.058411 58.376919
168.793259 14.4
169.07309 42.180149
169.223541 20.6098
169.259109 6.0
170.071991 860.508789
170.12883 12.84295
171.15094 10.29779
171.179367 14.86422
171.211945 36.105358
171.288284 28.462811
171.31105 10.5625
171.322433 3.875
171.357574 16.50189
171.379349 15.00179
171.418381 12.95066
171.65271 6.502976
171.732132 12.19837
171.886032 12.68015
171.967377 16.77574
172.017548 6.5025
172.086853 19402.720703
172.142593 234.099304
172.159393 21.098789
172.18306 84.362701
172.213791 48.825951
172.223709 17.03767
172.255112 25.61816
172.281097 85.956596
172.30545 24.861679
172.314697 51.65247
172.341202 6.235577
172.361679 54.64138
172.375595 85.701843
172.41951 83.021767
172.435776 51.549339
172.471268 54.90155
172.510666 5.460227
172.526093 7.704167
172.537643 21.050301
172.551834 18.94022
172.565506 13.025
172.588867 19.39423
172.620132 19.717859
172.666061 15.0
172.751022 40.79464
172.840332 22.893379
173.069595 561.523926
173.219635 15.3125
173.39801 20.617649
173.728241 9.642858
173.773422 14.52083
173.789749 11.0744
174.103897 5.5125
174.256012 26.827869
175.272339 17.30769
175.556183 16.621321
175.571838 13.50169
176.051575 12.59524
176.453751 9.520833
176.559708 15.53333
176.586578 10.79779
176.602097 13.77802
181.078278 23.201389
181.818466 4.340278
182.068176 242.833496
182.397751 11.48098
183.086624 167.011002
183.114166 12.50961
184.084991 195.023407
184.112808 42.66943
184.912445 3.673611
185.103516 35.308819
185.186646 7.125
186.102081 301.015991
187.084305 83.694077
187.121689 26.57143
187.647064 13.03333
189.089127 161.044693
189.127289 4.083333
195.923538 21.624439
196.035553 19.50658
196.054901 29.023331
196.079422 7.741071
196.680679 6.020833
196.826828 26.095591
196.869873 9.020833
196.997482 20.02029
197.025589 16.12019
197.044006 115.207802
197.091354 690.671082
197.142807 15.54688
197.156387 3.1125
197.196533 7.508929
197.230728 20.00658
197.269821 22.538759
197.296005 13.72454
197.465775 12.675
197.660919 6.5125
197.734238 30.04438
197.861496 11.5
197.881088 5.160714
197.891891 6.389423
197.998535 10.00189
198.065887 12875.730469
198.125351 77.314217
198.16011 8.519397
198.178268 44.67754
198.202286 36.658321
198.225662 16.621321
198.253403 37.978691
198.279449 17.28533
198.296753 22.098789
198.321335 61.114601
198.367386 37.172451
198.396637 13.66898
198.406937 18.15341
198.425858 32.58173
198.44426 26.504169
198.485077 23.60327
198.512985 63.002979
198.533264 9.555921
198.573181 18.15625
198.60495 42.577599
198.651474 23.275921
198.699173 26.504169
198.737411 45.93103
198.765274 25.56716
198.807266 18.64854
198.916718 23.81229
198.947128 18.074409
199.002747 6.890625
199.096146 294.8172
199.278244 17.35417
199.41391 49.670658
199.548447 13.0
199.646759 19.0
199.69603 10.53846
199.946823 57.51815
200.007324 5.460227
200.020493 5.003676
200.081375 3320.431885
200.158432 12.36422
200.246719 29.029409
200.281357 23.51613
200.326035 17.15789
200.393768 3.0625
200.589172 11.0625
200.611618 15.00625
201.452347 20.75
201.940598 9.5
202.103165 55.66328
202.225845 13.52632
202.268875 13.6125
202.449951 21.14205
203.111221 30.82008
208.356674 30.707609
209.095932 38.97961
209.533371 3.5
209.886032 17.905001
210.103287 84.225792
210.890198 11.76471
210.93634 16.840281
212.088516 53.322788
212.120834 14.56653
212.496384 16.02083
213.086319 54.192822
213.114578 80.86364
214.095703 418.226501
214.359955 10.00781
214.431274 17.58333
214.556671 15.00417
215.114777 27.76178
216.076248 197.021805
223.11145 16.00152
224.089844 56.120098
224.119781 292.199493
224.287384 7.074405
224.307846 11.51786
224.793045 9.03125
225.012329 25.59926
225.075302 217.487
225.158401 8.828804
226.060028 425.85611
226.087967 123.412399
226.135529 2.508929
226.151672 18.64286
227.09996 50.76667
228.116333 245.046295
236.114716 37.0947
236.231979 6.5625
240.114151 19.322371
241.431549 20.101139
241.572205 13.51607
241.653351 30.30492
241.710098 22.92222
241.774216 15.40833
241.79361 48.527439
241.831543 3.080357
241.849152 51.560101
241.994034 16.105261
242.097458 81.405899
242.188904 4.525
242.823441 4.778409
242.917938 32.09943
243.002258 11.11539
243.028732 73.537086
243.087448 11376.639648
243.152451 102.533798
243.17337 48.05191
243.218231 36.216221
243.245224 52.377338
243.258408 68.673828
243.279083 4.625
243.313385 32.272732
243.328857 9.673611
243.367249 58.643749
243.39769 22.533251
243.416275 102.307404
243.451691 38.612499
243.510254 24.47596
243.571442 4.506945
243.598572 4.515625
243.617554 22.027781
243.774734 39.027321
243.840637 33.35133
244.044022 7.5025
244.189804 32.168228
244.299835 3.673611
244.737427 3.875
244.975601 3.723214
245.061356 8.524457
245.335419 9.173611
245.846207 9.142858
252.105515 11.11539
252.695282 20.00481
253.126831 8.524457
254.101471 59.665539
255.092026 81.156609
256.098358 106.648201
256.35144 5.625
257.106293 90.873283
259.353119 5.6
268.103607 4.504807
280.105988 75.548172
288.13858 95.001152
288.172791 2.5625
288.221252 2.666667
297.100159 71.045464
301.313843 3.005682
313.26001 26.644739
315.119263 12.76563
323.105011 47.0625
324.593567 5.460227
329.670288 5.333333
359.13327 21.7875
377.138977 95.995239
483.376312 42.537811
650.649841 6.125
956.237366 10.36012
1212.944702 20.548611
