>compound MLS002207223-01!Picrotin
>formula C15H18O7
>ionization [M+Na]+
>parentmass 333.0944736160905
#inchi InChI=1S/C15H18O7/c1-12(2,18)6-7-10(16)20-8(6)9-13(3)14(7,19)4-5-15(13,22-5)11(17)21-9/h5-9,18-19H,4H2,1-3H3
#inchikey RYEFFICCPKWYML
#Ion_Source LC-ESI
#Instrument qTof
#Compound_Source NIH Pharmacologically Active Library
#PI Dorrestein
#Data_Collector VP/LMS
#Scan -1
#Precursor_MZ 333.098
#ExactMass 310.105
#Charge 1
#CAS_Number N/A
#Pubmed_ID N/A
#Smiles CC(C)(O)C1C2OC(=O)C1C3(O)CC4OC45C(=O)OC2C53C
#INCHI_AUX N/A
#Library_Class 3
#SpectrumID CCMSLIB00000085676
#IonMode Positive
#UpdateWorkflowName UPDATE-SINGLE-ANNOTATED-BRONZE
#LibraryQualityString Bronze
#TaskID d252d724072548979f1f6f1ced849daf
##Scan# 1407
#SpectrumFile p4-E02_GE2_01_18374.mzXML
#LibraryName Pharm_Active_Library.mgf
#MQScore -1
#Organism Pharm_Active_Library
#TIC_Query 0
#RT_Query -1
#MZErrorPPM -1
#SharedPeaks 0
#MassDiff 0
#LibMZ -1
#SpecMZ 333.098
#SpecCharge 0
#internalFilename spec-00000.mgf

>collision 10
47.737408 160.0
48.069397 172.0
48.186764 164.0
51.61834 48.0
51.847389 204.0
69.749672 140.0
73.91758 196.0
77.148659 28.0
77.656464 212.0
88.097092 148.0
88.291489 200.0
89.035515 172.0
91.046875 140.0
99.005798 44.0
99.037491 176.0
102.093208 148.0
103.050697 200.0
105.060661 180.0
105.160652 68.0
106.534653 164.0
112.056618 44.0
114.539513 100.0
114.56395 224.0
116.052597 160.0
117.85202 72.0
120.07933 160.0
122.320877 192.0
123.119041 188.0
123.986275 160.0
124.134804 164.0
126.841507 164.0
128.043991 112.0
129.043015 732.0
130.064957 620.0
134.935532 128.0
136.970764 164.0
141.906143 240.0
142.05629 284.0
144.079086 176.0
145.074097 188.0
146.061615 160.0
153.81105 148.0
154.065399 164.0
155.811996 128.0
156.003357 48.0
156.045624 204.0
156.065506 116.0
156.145081 136.0
157.076233 3880.0
157.10907 132.0
157.181427 36.0
157.266281 96.0
157.468521 56.0
157.568436 72.0
157.665894 76.0
157.933411 112.0
158.075836 160.0
158.271271 68.0
158.925476 172.0
159.000763 64.0
159.113724 72.0
164.917511 40.0
165.022324 176.0
166.085098 48.0
168.05571 188.0
168.991043 112.0
169.387146 244.0
170.06604 176.0
171.080292 212.0
172.081299 192.0
173.105865 168.0
175.07074 136.0
184.089539 332.0
185.09317 1064.0
185.725189 44.0
186.094269 144.0
187.546982 148.0
188.120239 228.0
192.032761 104.0
198.098129 232.0
200.118774 824.0
200.151199 48.0
201.118713 192.0
201.807495 72.0
202.112976 164.0
202.183716 44.0
204.021774 80.0
209.634811 80.0
209.931732 152.0
216.125 180.0
242.132767 176.0
262.088989 120.0
313.907654 100.0
330.280609 68.0
333.085846 284.0
333.68219 84.0
333.896759 156.0
341.224884 148.0
535.547241 200.0
727.375732 128.0
734.570374 72.0
1080.99707 160.0
1081.042847 72.0
1368.345825 56.0
1404.085571 264.0
