>compound MLS000877017-01!(3S,3'R)-3'-(3-hydroxyphenyl)-4-methylspiro[1H-1,4-benzodiazepine-3,2'-oxirane]-2,5-dione
>formula C17H14N2O4
>ionization [M+H]+
>parentmass 311.103
#inchi InChI=1S/C17H14N2O4/c1-19-15(21)12-7-2-3-8-13(12)18-16(22)17(19)14(23-17)10-5-4-6-11(20)9-10/h2-9,14,20H,1H3,(H,18,22)/t14-,17+/m1/s1
#inchikey BDDNYDPRCCDQQJ
#Ion_Source LC-ESI
#Instrument qTof
#Compound_Source NIH Natural Product Library
#PI Dorrestein
#Data_Collector VVP/LMS
#Scan -1
#Precursor_MZ 311.103
#ExactMass 310.095
#Charge 1
#CAS_Number N/A
#Pubmed_ID N/A
#Smiles CN1C(=O)c2ccccc2NC(=O)[C@@]31O[C@@H]3c4cccc(O)c4
#INCHI_AUX N/A
#Library_Class 1
#SpectrumID CCMSLIB00000079856
#IonMode Positive
#UpdateWorkflowName UPDATE-SINGLE-ANNOTATED-GOLD
#LibraryQualityString Gold
#TaskID b1d8e8f6646f4e71acdff9ca3d919d08
##Scan# 1466
#SpectrumFile p1-A12_GA12_01_17884.mzXML
#LibraryName NIH_Natural_Products_Library.mgf
#MQScore -1
#Organism NIH_Natural_Products_Library
#TIC_Query 0
#RT_Query -1
#MZErrorPPM -1
#SharedPeaks 0
#MassDiff 0
#LibMZ -1
#SpecMZ 311.103
#SpecCharge 0
#internalFilename spec-00000.mgf

>collision 10
99.410042 196.0
109.794266 140.0
115.014305 120.0
117.900909 104.0
118.02755 336.0
118.088997 80.0
118.467789 108.0
120.044762 348.0
121.048721 168.0
130.029663 168.0
131.016495 84.0
132.043655 188.0
132.071091 164.0
132.103119 208.0
132.629776 64.0
132.710007 40.0
133.022018 188.0
133.047272 140.0
134.638321 180.0
135.038147 132.0
136.985565 144.0
138.361038 160.0
139.068939 148.0
140.745087 124.0
141.067688 152.0
145.046463 156.0
145.756836 164.0
145.792877 40.0
145.838547 168.0
145.881805 160.0
145.975586 100.0
145.998764 236.0
146.024445 5308.0
146.129517 108.0
146.218552 36.0
146.293167 112.0
146.329269 40.0
146.399109 68.0
146.85701 116.0
147.027115 252.0
147.103119 160.0
147.318039 52.0
148.036377 72.0
149.24234 60.0
151.053146 148.0
153.066818 148.0
153.261414 200.0
161.022537 204.0
161.887436 84.0
167.007111 188.0
167.071426 72.0
168.082916 208.0
168.93396 160.0
169.086624 164.0
170.77301 212.0
170.957733 20.0
174.055344 156.0
177.064575 552.0
177.676544 92.0
178.060089 120.0
180.081055 192.0
181.063583 232.0
194.053238 116.0
195.067169 172.0
196.07959 164.0
197.06189 148.0
197.081451 128.0
198.087631 236.0
201.100021 40.0
206.057938 140.0
209.083237 180.0
211.062119 136.0
224.069016 204.0
225.079697 116.0
233.071075 224.0
239.064545 168.0
242.065033 152.0
246.126007 144.0
252.066849 628.0
259.895905 140.0
302.062103 64.0
304.189697 184.0
427.119232 84.0
549.174866 20.0
624.202942 20.0
702.996094 20.0
835.003296 176.0
922.150635 52.0
926.366882 108.0
928.349915 96.0
933.657532 136.0
938.272949 180.0
1059.201904 220.0
1064.318726 108.0
1126.662354 200.0
1226.684814 196.0
1238.052368 104.0
1305.474121 68.0
1349.196655 176.0
1358.966431 192.0
1366.776855 208.0
1378.560181 212.0
1394.137085 92.0
1409.704224 112.0
1482.72229 176.0
1483.23584 148.0
1496.864746 236.0
