>compound MLS000863634-01!methyl 2-(2,6-dihydroxy-4-methylbenzoyl)-5-hydroxy-3-methoxybenzoate
>formula C17H16O7
>ionization [M+H]+
>parentmass 333.097
#inchi InChI=1S/C17H16O7/c1-8-4-11(19)15(12(20)5-8)16(21)14-10(17(22)24-3)6-9(18)7-13(14)23-2/h4-7,18-20H,1-3H3
#inchikey YJRLSCDUYLRBIZ
#Ion_Source LC-ESI
#Instrument qTof
#Compound_Source NIH Natural Product Library
#PI Dorrestein
#Data_Collector VVP/LMS
#Scan -1
#Precursor_MZ 333.097
#ExactMass 332.09
#Charge 1
#CAS_Number N/A
#Pubmed_ID N/A
#Smiles COC(=O)c1cc(O)cc(OC)c1C(=O)c2c(O)cc(C)cc2O
#INCHI_AUX N/A
#Library_Class 1
#SpectrumID CCMSLIB00000080589
#IonMode Positive
#UpdateWorkflowName UPDATE-SINGLE-ANNOTATED-GOLD
#LibraryQualityString Gold
#TaskID b1d8e8f6646f4e71acdff9ca3d919d08
##Scan# 1930
#SpectrumFile p2-B11_GB11_01_17999.mzXML
#LibraryName NIH_Natural_Products_Library.mgf
#MQScore -1
#Organism NIH_Natural_Products_Library
#TIC_Query 0
#RT_Query -1
#MZErrorPPM -1
#SharedPeaks 0
#MassDiff 0
#LibMZ -1
#SpecMZ 333.097
#SpecCharge 0
#internalFilename spec-00000.mgf

>collision 10
95.023422 120.0
95.050583 168.0
96.220352 196.0
98.170746 196.0
98.891846 132.0
98.980934 164.0
99.099777 148.0
101.595909 160.0
104.839203 60.0
105.496429 44.0
108.020203 196.0
108.435829 48.0
109.029388 184.0
109.462082 204.0
109.570396 132.0
109.659996 120.0
109.874779 196.0
110.532928 52.0
110.935051 144.0
111.042953 148.0
111.07135 200.0
112.460068 140.0
113.274139 244.0
113.373718 116.0
113.950874 172.0
114.057129 136.0
114.410255 40.0
115.07756 180.0
115.986755 148.0
116.583412 144.0
117.727325 184.0
118.187752 224.0
119.835732 144.0
120.014458 132.0
121.031044 420.0
121.723381 108.0
122.036591 172.0
122.653999 156.0
122.715729 204.0
123.006752 296.0
123.045639 200.0
123.373634 144.0
124.275032 160.0
124.661392 156.0
125.063934 196.0
126.069778 92.0
126.889015 188.0
129.666153 104.0
130.870102 164.0
132.15741 220.0
132.750671 152.0
132.941086 204.0
133.47171 168.0
135.008804 240.0
135.067627 112.0
136.0177 1004.0
136.98732 192.0
137.023926 180.0
137.066544 104.0
138.031189 748.0
138.206009 76.0
138.84552 228.0
138.908844 136.0
139.031708 252.0
139.829895 40.0
140.950058 184.0
141.02095 104.0
143.039474 56.0
143.332413 60.0
143.434891 156.0
144.11026 176.0
144.861465 136.0
145.014816 244.0
149.024506 436.0
149.054733 44.0
149.399994 60.0
150.029999 568.0
150.052673 188.0
150.213623 180.0
150.577301 92.0
150.716537 144.0
151.041031 2760.0
151.141998 36.0
151.178711 152.0
152.039551 160.0
153.014725 112.0
153.049194 140.0
153.956635 188.0
154.911362 196.0
155.047638 140.0
155.350128 112.0
156.090256 84.0
156.687607 148.0
158.591766 228.0
158.7798 148.0
159.922958 212.0
160.916168 52.0
161.264771 80.0
162.861023 172.0
162.918381 212.0
162.942307 28.0
162.967712 28.0
163.036316 136.0
163.313446 52.0
164.329865 116.0
165.018707 176.0
165.9104 36.0
165.992447 156.0
166.024109 1000.0
166.77803 76.0
167.027695 208.0
167.248734 132.0
168.737198 52.0
169.534424 72.0
170.481628 136.0
171.744324 180.0
172.248108 204.0
172.844177 132.0
174.949097 176.0
175.041245 108.0
176.01207 324.0
177.014572 308.0
177.878098 60.0
177.901978 80.0
178.760468 144.0
178.866928 164.0
178.989395 176.0
179.0336 868.0
179.126907 120.0
180.033997 224.0
180.085449 140.0
180.227036 196.0
181.049301 572.0
181.077713 40.0
181.187546 72.0
181.353683 52.0
182.054001 120.0
182.459641 168.0
183.965576 56.0
184.039917 104.0
184.751968 116.0
184.887253 216.0
186.248291 132.0
188.015289 160.0
191.907761 92.0
191.962906 144.0
193.241776 228.0
193.299881 160.0
194.023544 124.0
194.291794 80.0
197.419754 232.0
197.735886 104.0
199.314697 108.0
200.228958 132.0
200.358521 156.0
200.471222 96.0
200.67981 196.0
200.942596 164.0
201.568939 52.0
202.341095 176.0
203.072174 108.0
203.790375 60.0
204.007385 328.0
204.635101 164.0
206.60434 152.0
208.117584 140.0
208.353104 124.0
208.419174 188.0
208.447922 100.0
208.65773 72.0
208.686493 36.0
208.743988 128.0
208.772751 92.0
208.974106 168.0
208.999588 140.0
209.045914 12840.0
209.111267 84.0
209.201462 116.0
209.356934 76.0
209.411652 44.0
209.489426 88.0
209.532639 68.0
209.639252 52.0
209.714188 64.0
209.806427 60.0
209.919983 52.0
209.95636 40.0
210.048309 1468.0
210.262695 108.0
210.504654 112.0
210.571075 44.0
210.992966 52.0
211.05101 408.0
211.212738 40.0
211.31398 108.0
211.371857 100.0
211.418152 92.0
211.467346 80.0
211.53392 84.0
211.591827 104.0
211.635254 140.0
211.672897 140.0
211.811905 136.0
212.0495 164.0
212.276123 92.0
212.644058 68.0
213.774551 56.0
219.031006 1916.0
219.905624 92.0
219.961716 228.0
220.028625 468.0
220.351517 96.0
220.44017 60.0
221.265381 68.0
221.768967 92.0
222.041733 140.0
224.906921 132.0
227.271103 128.0
237.045502 532.0
238.041412 48.0
248.944839 148.0
255.061523 136.0
269.046509 192.0
271.048157 136.0
276.908752 136.0
286.964081 172.0
294.921387 84.0
299.047546 172.0
301.064392 104.0
312.051361 60.0
314.203247 136.0
343.171082 52.0
366.883545 64.0
368.05484 60.0
381.244812 76.0
408.872528 92.0
598.096069 112.0
824.207031 188.0
951.073669 144.0
1140.603638 208.0
1216.704712 152.0
1247.758789 180.0
1249.777222 200.0
1261.639771 56.0
1276.500488 168.0
1341.992432 124.0
1358.769897 40.0
1367.536255 132.0
1379.773682 188.0
1381.607788 116.0
1384.575806 108.0
1392.786011 200.0
1393.031128 68.0
1393.595825 40.0
1405.82959 168.0
1420.906372 92.0
1454.024414 212.0
1468.807495 204.0
