>compound cyclo(L-Leu-L-Pro)
>formula C11H18N2O2 
>ionization [M+H]+
>parentmass 211.145569
#inchi InChI=1S/C11H18N2O2/c1-7(2)6-8-11(15)13-5-3-4-9(13)10(14)12-8/h7-9H,3-6H2,1-2H3,(H,12,14)
#inchikey SZJNCZMRZAUNQT
#Ion_Source DI-ESI
#Instrument qTof
#Compound_Source Isolated
#PI Keyzers
#Data_Collector R Keyzers
#Scan -1
#Precursor_MZ 211.145
#ExactMass 210.137
#Charge 1
#CAS_Number 2873-36-1
#Pubmed_ID N/A
#Smiles N/A
#INCHI_AUX N/A
#Library_Class 3
#SpectrumID CCMSLIB00000007046
#IonMode Positive
#UpdateWorkflowName UPDATE-SINGLE-ANNOTATED-BRONZE
#LibraryQualityString Bronze
#TaskID 76b66bf1ccd04cec9993212b36387ea3
##Scan# 1
#SpectrumFile CDB02_35I_pos_MSMS_003_2.mgf
#LibraryName gnps_library.mgf
#MQScore -1
#Organism test_rob_keyzers
#TIC_Query 0
#RT_Query -1
#MZErrorPPM -1
#SharedPeaks 0
#MassDiff 0
#LibMZ -1
#SpecMZ 211.145
#SpecCharge 0
#internalFilename spec-00000.mgf

>collision 10
30.032473 875.548523
41.039097 2337.187012
42.033947 599.858215
43.054554 13210.040039
43.114025 270.563385
44.012131 270.55191
44.049759 16506.660156
44.110214 302.688995
45.034042 6319.89209
53.038635 301.195099
55.01683 720.936829
55.054424 1065.116943
56.050793 301.619293
57.021061 865.843201
57.071964 513.083313
58.028893 5650.315918
67.051132 267.006012
68.048904 1855.760986
69.067947 1418.256958
70.065506 198070.0
71.069008 6059.069824
72.044662 43773.828125
73.047638 1218.811035
79.056358 334.781311
80.052155 306.593414
81.064583 446.100098
82.028061 206.813797
82.065659 2516.802979
84.032448 258.298615
84.080582 750.382507
85.03965 257.469696
86.096474 6851.018066
87.099396 341.009613
89.060463 272.166412
94.064171 453.481415
95.071831 1003.616028
96.042191 231.001297
96.080589 1825.54895
97.071198 818.127197
98.059853 25207.369141
98.149437 303.410004
99.064972 972.756104
100.076309 264.977905
109.072891 357.816498
110.060173 3685.099121
111.060616 232.720505
111.091072 317.438385
112.02636 1716.13501
113.077309 217.005707
114.090645 13465.370117
115.09304 804.788879
119.057732 384.453308
122.086548 411.818787
123.092194 278.728912
124.074249 222.520096
125.072098 1258.651978
126.04734 238.240707
126.078659 701.512817
126.127907 286.25
127.086205 1395.334961
137.069504 735.727417
138.127304 15799.099609
139.130493 1277.185059
150.127151 217.929199
151.07048 380.260803
152.128464 239.902206
153.064941 2930.333984
154.072876 7603.375
155.074844 538.23468
155.153778 596.374023
156.142014 261.148895
166.120514 534.546814
167.154465 259.859711
183.148453 908.971985
194.11441 395.321411
209.129623 389.311188
211.145569 1589.291016
