>compound Chloroxine
>formula C9H5Cl2NO 
>ionization [M+H]+
>parentmass 213.982315
#inchi InChI=1S/C9H5Cl2NO/c10-6-4-7(11)9(13)8-5(6)2-1-3-12-8/h1-4,13H
#inchikey WDFKMLRRRCGAKS
#Ion_Source LC-ESI
#Instrument qTof
#Compound_Source Isolated
#PI Sirenas
#Data_Collector Ed Esquenazi 
#Scan -1
#Precursor_MZ 213.983
#ExactMass 0.0
#Charge 1
#CAS_Number N/A
#Pubmed_ID N/A
#Smiles N/A
#INCHI_AUX N/A
#Library_Class 3
#SpectrumID CCMSLIB00000005711
#IonMode Positive
#UpdateWorkflowName UPDATE-SINGLE-ANNOTATED-BRONZE
#LibraryQualityString Bronze
#TaskID d19310cd93df49b68e9fcbec27720eb5
##Scan# 3
#SpectrumFile Chloroxine.mgf
#LibraryName fda_library.mgf
#MQScore -1
#Organism fda_library
#TIC_Query 0
#RT_Query -1
#MZErrorPPM -1
#SharedPeaks 0
#MassDiff 0
#LibMZ -1
#SpecMZ 213.983
#SpecCharge 0
#internalFilename spec-00000.mgf

>collision 10
100.011688 4.340278
101.994774 14.7272
102.030067 4.963235
102.037163 19.609091
102.398758 4.8375
105.90271 4.227273
108.98307 40.167709
111.00145 25.68545
113.320442 1.860119
113.399956 6.136364
113.496819 3.504167
113.524536 2.354167
113.573151 4.166667
113.69249 5.375
113.714081 1.843202
113.810577 4.821047
113.9702 3.336806
114.033791 3349.613037
114.079117 12.76647
114.095734 12.83959
114.104149 5.859509
114.115425 10.54719
114.139717 25.15136
114.159721 4.834239
114.19265 11.2612
114.215446 0.836309
114.237755 5.344415
114.256271 4.378942
114.27494 14.3729
114.282532 4.246795
114.299232 17.864531
114.312141 2.172619
114.327019 4.280093
114.338173 2.502976
114.356033 4.854167
114.382835 5.800463
114.393654 6.113575
114.425644 6.177778
114.452141 25.42606
114.473938 16.22938
114.494469 4.183712
114.521706 12.85188
114.535416 11.33799
114.563507 15.56559
114.61132 5.924425
114.621605 13.32456
114.653831 15.6427
114.684395 4.507576
114.714043 8.66562
114.732826 2.167572
114.848373 6.666667
114.879501 2.53125
114.916389 4.553571
115.008743 3.339382
115.041626 7233.73291
115.087036 64.014023
115.095634 13.17775
115.104652 7.846726
115.123497 15.49829
115.131714 15.71479
115.149284 12.3141
115.158028 3.374167
115.165581 16.795589
115.181221 2.001225
115.187592 10.50877
115.199097 5.197601
115.215942 10.39169
115.226959 2.760417
115.241127 25.3358
115.259598 35.652699
115.287544 25.468611
115.305244 3.105655
115.321678 15.9184
115.338638 10.51002
115.36322 16.03021
115.380096 7.708812
115.38633 9.541159
115.393867 9.275735
115.417419 11.9375
115.440147 19.967239
115.463585 16.38414
115.477997 14.85459
115.486778 12.35975
115.498001 8.5
115.513634 12.68375
115.524208 5.127604
115.546402 5.871142
115.560844 10.42298
115.576668 15.00261
115.599136 20.47086
115.640121 6.194445
115.696228 8.252778
115.726189 5.9375
115.771095 6.169956
115.903107 3.9675
116.028503 22.936359
116.049637 4028.843018
116.094261 26.68166
116.152657 9.561484
116.180214 4.074405
116.213753 9.833713
116.260689 8.409722
116.309219 9.707341
116.318245 6.287202
116.328674 2.05787
116.344513 9.5
116.385796 6.875906
116.404556 3.872549
116.445847 12.71669
116.494652 7.576845
116.513435 7.955883
116.562248 9.507134
116.569969 7.801667
116.614845 5.037037
116.625984 6.669872
116.71151 8.166514
116.735107 8.952651
116.772377 8.599573
117.063744 22.0651
117.179047 4.280093
117.190338 2.334326
118.334137 4.395833
118.37587 1.2
118.907227 9.114401
119.48484 5.816667
122.24118 3.169643
122.281845 7.408179
122.305367 17.17193
122.319283 1.633333
122.333122 15.92805
122.341209 5.415
122.371574 3.368056
122.385864 5.908179
122.403725 14.88935
122.418175 10.19534
122.445869 30.32769
122.464287 5.738691
122.49514 8.130894
122.530098 2.194444
122.541382 4.844445
122.561089 8.191667
122.610809 5.460022
122.706741 3.836309
122.726303 6.393333
122.745056 12.53057
122.780128 10.0173
122.861229 4.960318
122.884369 5.009827
122.919518 5.297861
122.999878 12107.240234
123.046906 81.920326
123.085495 5.328305
123.1007 4.875
123.123604 8.095569
123.139938 24.088551
123.155869 29.200769
123.168671 8.444445
123.190865 17.57666
123.201088 26.11574
123.208778 5.2075
123.238594 16.036631
123.245102 6.440476
123.268616 45.68874
123.28524 12.34375
123.312553 29.47834
123.332085 12.28337
123.340996 6.75947
123.355217 6.256945
123.368813 4.909559
123.37925 6.796371
123.399712 23.778299
123.417427 10.4128
123.455788 2.016667
123.474159 19.1959
123.48365 3.391204
123.491043 16.0
123.497917 2.75
123.573959 7.884804
123.584259 2.334722
123.595734 3.01864
123.618195 4.844445
123.670807 11.13599
123.718147 6.934722
123.802635 8.032639
123.966568 9.669551
124.015869 496.960907
124.063683 8.992573
124.072311 14.12973
124.133202 12.16779
124.149384 13.40589
124.212624 3.0
124.34967 7.526175
124.431793 8.007134
124.455078 2.835938
124.594902 2.422149
124.702751 6.797068
124.757317 6.844444
124.84449 5.724537
124.877258 1.555555
125.15155 4.000992
125.333717 2.580357
125.471245 8.426137
125.536453 2.083333
125.766121 10.78922
125.961739 9.346591
126.004524 2.669872
126.035522 18.537121
126.289764 4.8
126.798508 5.849537
127.925301 2.522645
128.635666 2.796474
132.983276 36.628281
134.145233 7.538462
140.554047 5.842593
141.665634 11.68333
143.036758 611.180786
143.085953 1.175
143.215485 3.0375
143.301849 2.334326
143.438477 1.173611
143.569901 6.864583
143.697754 5.380682
144.043793 864.202698
144.094193 1.667892
144.11235 7.406746
144.182892 3.595109
144.198624 7.3125
144.215332 3.835417
144.240097 5.460938
144.265213 6.75
144.30336 2.373398
144.36525 10.70168
144.464966 10.85745
144.487015 4.667151
144.502808 5.407738
144.533051 7.19697
144.70047 11.98674
144.788254 2.674167
149.002411 33.821339
149.068115 3.42803
149.114471 5.578526
149.140686 19.365089
149.160599 17.155371
149.184464 4.354167
149.206467 40.977421
149.229797 19.836599
149.242493 3.024801
149.251022 9.837501
149.26001 16.889311
149.285004 4.500833
149.300018 5.010417
149.314438 19.722219
149.327194 66.161392
149.348785 4.669872
149.368011 11.57355
149.387695 4.814951
149.42923 7.17124
149.441772 16.221251
149.476364 4.2675
149.552887 3.500906
149.599884 7.751736
149.611618 9.996058
149.681107 4.778409
149.701263 13.42596
149.787125 8.593472
149.795761 11.50029
149.857376 6.260031
149.910583 5.511905
150.010696 16555.099609
150.060898 14.97405
150.080276 125.568703
150.135712 6.349116
150.171722 7.270833
150.187241 45.127941
150.214813 44.238991
150.233505 14.54825
150.241333 14.49914
150.270554 55.959122
150.298264 45.532768
150.339661 16.83849
150.348755 7.656822
150.362305 34.18745
150.37146 26.17388
150.37941 2.060049
150.401276 16.5
150.411118 55.392059
150.422089 8.115705
150.432632 75.061234
150.448517 7.853888
150.457047 3.0
150.477295 29.30913
150.490829 18.958241
150.508392 11.63575
150.519745 20.53406
150.529419 11.50038
150.540466 5.923529
150.55571 19.85409
150.588516 7.516987
150.609863 5.333333
150.623917 39.205742
150.636017 18.75477
150.646957 13.17172
150.675186 32.359711
150.744736 9.326993
150.757614 16.167709
150.780685 6.000425
150.830627 30.29389
150.872726 21.632351
150.886948 15.76587
150.988678 22.586809
151.018311 10620.889648
151.086685 47.185822
151.144684 63.904011
151.161118 11.29518
151.169678 15.3336
151.218445 26.889589
151.24086 52.771622
151.279785 15.36789
151.340515 12.33925
151.380829 32.59486
151.443542 3.100969
151.45636 12.83435
151.46904 16.551519
151.491531 33.424339
151.507767 6.372578
151.526413 27.16968
151.544144 13.03897
151.594955 38.706429
151.666504 13.70139
151.761978 9.864751
151.781174 22.88797
152.000519 20.914249
152.047592 5.371142
152.133606 3.003472
152.416946 3.169444
152.632751 8.370536
152.709137 8.058333
152.726334 4.669117
152.80806 2.027412
153.12265 3.871795
153.199631 3.673132
153.293869 3.986842
153.772125 3.361111
154.022614 12.01705
154.431137 7.757576
154.585022 0.860119
154.662827 8.236842
155.945663 7.177696
158.042877 1.041667
158.905518 2.4
159.098526 3.834105
159.301544 8.223765
159.311157 10.36832
159.994324 352.757812
160.056564 1.0
160.075089 1.074405
160.197449 7.005208
160.267578 7.160715
160.369263 12.1691
160.57196 9.338096
160.624832 1.666667
160.826752 5.15308
161.001678 581.374817
161.367584 15.20593
161.399109 1.901389
162.304688 1.675
166.638199 3.560185
166.887573 3.500992
168.733307 15.82031
176.997223 36.9697
177.482407 4.300595
177.853348 2.834167
177.880829 6.346688
177.905716 7.523551
177.921951 7.000534
177.955902 8.880908
177.96936 2.334167
178.005585 317.663086
178.026947 3.504167
178.066452 7.595158
178.079071 8.84058
178.10376 21.384569
178.205353 10.20158
178.22377 6.413462
178.238861 4.933333
178.252579 1.833333
178.261856 2.503472
178.303238 17.030991
178.354767 2.888889
178.554428 2.786706
178.580276 9.583333
178.760544 7.537094
178.774078 5.186275
178.78479 3.416667
178.982056 7.464285
179.013245 6319.291992
179.069626 50.207069
179.088882 42.646671
179.123001 6.928572
179.133347 4.482143
179.1763 19.426689
179.204697 12.3049
179.223526 5.927273
179.250732 22.2901
179.269135 6.14892
179.33847 25.44776
179.355072 4.505067
179.378174 8.360215
179.387711 2.834722
179.402878 9.738095
179.440125 19.88312
179.457565 2.844363
179.479691 15.64725
179.525482 9.813725
179.546143 2.518518
179.626221 9.469167
179.666473 13.15755
179.691299 4.435185
179.727997 4.669643
179.814423 15.58772
179.998596 7.834596
180.013824 14.69759
180.359207 3.185606
180.599869 5.583333
180.858932 3.705128
181.00795 32.20916
181.40155 4.51796
182.842865 2.900833
183.139343 1.679167
183.968079 28.113779
184.667816 7.899765
184.980743 244.098099
185.084152 7.834559
185.145691 2.544384
185.230911 4.019737
185.264221 7.605556
185.666779 9.168103
195.971207 80.615242
207.833527 13.1601
211.890701 5.377778
212.653839 9.156878
212.674118 2.345833
212.75531 3.002778
212.770554 1.173611
212.849625 1.966667
212.975189 253.226807
213.049713 2.334722
213.131836 3.740833
213.184692 4.23279
213.389206 0.854167
213.435806 2.5075
213.715439 3.703704
213.936035 22.9207
213.982315 1864.645996
214.031036 18.340099
214.045715 7.265731
214.065338 12.50938
214.07637 1.020833
214.101822 7.561484
214.127594 5.870535
214.153061 2.920139
214.173401 3.849116
214.214706 8.574613
214.275238 2.341486
214.303955 7.308243
214.348022 1.944445
214.419281 5.5625
214.484024 5.184627
214.514801 11.85938
214.616577 4.668269
214.698151 2.4
214.830566 2.347756
214.84343 3.520833
214.962631 8.017993
215.208176 3.686404
215.243896 2.900833
218.492065 5.335417
351.242889 12.76593
1000.937378 2.19391
1217.501221 5.334005
