>compound Reserpine
>formula C33H40N2O9 
>ionization [M+H]+
>parentmass 609.281128
#inchi InChI=1S/C33H40N2O9/c1-38-19-7-8-20-21-9-10-35-16-18-13-27(44-32(36)17-11-25(39-2)30(41-4)26(12-17)40-3)31(42-5)28(33(37)43-6)22(18)15-24(35)29(21)34-23(20)14-19/h7-8,11-12,14,18,22,24,27-28,31,34H,9-10,13,15-16H2,1-6H3/t18-,22+,24-,27-,28+,31+/m1/s1
#inchikey QEVHRUUCFGRFIF
#Ion_Source LC-ESI
#Instrument qTof
#Compound_Source Isolated
#PI Sirenas
#Data_Collector Ed Esquenazi 
#Scan -1
#Precursor_MZ 609.282
#ExactMass 0.0
#Charge 1
#CAS_Number N/A
#Pubmed_ID N/A
#Smiles N/A
#INCHI_AUX N/A
#Library_Class 3
#SpectrumID CCMSLIB00000006373
#IonMode Positive
#UpdateWorkflowName UPDATE-SINGLE-ANNOTATED-BRONZE
#LibraryQualityString Bronze
#TaskID d19310cd93df49b68e9fcbec27720eb5
##Scan# 3
#SpectrumFile Reserpine.mgf
#LibraryName fda_library.mgf
#MQScore -1
#Organism fda_library
#TIC_Query 0
#RT_Query -1
#MZErrorPPM -1
#SharedPeaks 0
#MassDiff 0
#LibMZ -1
#SpecMZ 609.282
#SpecCharge 0
#internalFilename spec-00000.mgf

>collision 10
101.059875 40.703701
105.610481 15.36915
107.074753 85.208344
108.05529 48.666672
108.082474 87.909782
109.060883 23.790409
111.043823 47.04427
115.048187 69.93837
116.068497 23.16856
117.057823 57.92844
117.068481 80.044807
118.062851 106.7845
121.060402 64.331261
123.079636 46.294479
123.698746 19.51894
125.058456 24.872721
125.082916 50.3344
128.680328 40.242821
130.063599 24.450239
130.086639 33.259621
131.075897 70.382027
131.086029 34.0
132.044739 90.906578
132.081909 115.741997
133.062927 25.97961
135.0457 69.838097
136.079498 49.024799
137.056595 38.196831
139.076019 76.852997
142.243057 10.59572
143.048065 20.2272
143.06842 157.544296
144.078476 49.34967
145.088776 30.42942
146.030731 12.0
146.074982 10.45581
146.232269 15.37745
147.081177 55.11594
148.074707 345.819885
148.390137 15.00167
149.058441 30.054211
149.441742 12.33532
150.088654 56.723389
150.833054 17.19355
152.046005 326.726501
152.306076 16.19853
154.062973 36.348042
156.078278 62.053741
159.06633 213.502304
159.26004 26.22838
160.076096 95.406342
160.87175 13.41346
161.083954 40.862011
162.090637 147.005798
163.078812 45.21703
164.069534 38.074242
167.066223 103.829903
169.086411 60.189419
172.072235 36.591869
173.079239 19.190319
173.091919 35.75
173.202988 21.497089
173.258713 19.00901
173.391541 11.00093
173.964645 27.117201
174.057388 51.686901
174.090607 6423.527832
174.147079 49.597149
174.166351 10.4386
174.198624 14.90433
174.212265 24.236111
174.248108 11.96354
174.277084 70.740868
174.29071 14.05518
174.304291 10.36925
174.313507 27.73027
174.362045 15.52196
174.442032 11.80417
174.516632 15.99646
174.598419 14.40858
174.672058 22.340281
174.708771 14.36012
174.842529 42.160969
174.861649 21.48572
175.003204 15.6674
175.028549 29.395321
175.074448 72.53907
178.058701 72.863052
178.085403 136.507996
181.085388 129.786301
184.985718 13.36012
185.080338 28.00177
185.340759 13.82828
185.449707 14.7904
186.088654 95.544128
187.075272 16.744049
187.09314 34.321468
188.105698 245.891205
188.32251 12.5
189.082092 13.33422
190.087112 97.380547
191.114899 18.157049
192.10144 507.214813
192.834457 15.84633
193.360672 21.70377
193.848297 50.90324
193.86235 12.66912
193.926178 13.78984
193.944885 12.97961
193.965073 19.19228
193.981552 15.55152
194.023193 38.55529
194.065002 32.062988
194.091492 60.867229
194.114395 58.345322
194.161316 19.06352
194.210068 16.385679
194.235336 11.32003
194.434174 13.03125
194.543518 28.56798
194.72525 12.79594
195.064728 9489.972656
195.1241 34.45134
195.134186 53.777599
195.154678 12.00278
195.209793 36.164631
195.226181 13.71352
195.246826 26.603479
195.269073 20.168011
195.280991 32.46389
195.314545 15.55254
195.353256 25.564461
195.386414 28.076349
195.40332 13.40783
195.43013 22.475
195.448959 19.066019
195.469528 18.20833
195.504456 22.065861
195.521286 16.44817
195.533676 25.17198
195.556778 26.85042
195.593002 15.33929
195.656647 20.455811
195.672821 14.09643
195.717133 37.04237
195.731537 20.333851
195.770737 22.962919
196.10347 21.026131
196.150436 24.347219
196.209534 23.709681
196.865219 12.49342
197.372559 14.39126
198.091141 96.749046
198.379242 14.71014
199.095871 135.373795
200.106537 103.224297
200.809723 23.000589
201.097824 196.085693
204.102722 243.289902
204.232239 23.671419
205.192993 14.44138
206.114105 67.344437
207.104523 65.10746
208.09819 58.080811
210.046295 38.13485
210.084442 74.933449
210.106049 26.722969
210.117889 71.832764
212.105576 50.67857
213.101669 40.336769
214.107452 76.171013
215.115524 151.928696
222.108109 79.756302
223.457611 11.09513
224.104248 28.94286
224.127579 166.196396
224.650269 21.705879
226.120728 140.648407
229.129822 113.439201
231.079712 17.682541
231.91629 22.687189
232.090729 63.511089
234.093369 80.115852
234.951996 10.38294
236.12706 1290.666992
236.236069 23.045
236.432877 19.16667
236.546417 15.02976
237.101227 22.5376
240.060669 22.884609
244.20871 13.19048
245.081131 28.37875
247.100098 22.7129
247.778885 17.3592
248.105179 82.181396
248.124435 55.67004
249.077744 85.728569
250.121857 115.463402
251.129791 112.831497
252.0979 14.03922
252.127243 149.214905
253.128799 114.265701
254.135086 116.959198
255.113434 19.34849
259.097412 21.067419
261.112366 73.980392
262.127472 48.06282
264.098114 29.733891
264.129181 13.44444
265.131104 18.597219
265.703033 13.43843
267.11319 43.625
267.147247 83.104347
272.070831 12.85201
272.574463 19.08003
273.109253 16.360121
274.116943 40.36232
275.135712 15.125
276.09967 48.177662
276.135376 196.148697
278.144379 34.871799
279.10434 23.66856
279.132874 30.04623
282.110535 25.1784
284.128998 44.721161
286.117035 41.336151
286.137421 101.019997
288.138916 161.596497
289.107697 41.57407
290.116699 32.72414
290.138794 21.70377
291.145721 15.73563
292.120544 43.884838
292.155151 12.33422
294.115997 60.862068
304.128448 148.782104
305.165253 56.086441
305.231445 16.492229
306.154053 57.409531
306.174774 67.706703
306.223053 23.472219
307.057648 13.7549
308.155945 16.49283
312.360107 10.11111
316.129303 87.438553
317.162476 15.86012
322.139099 35.0
324.153473 12.72854
325.157227 21.79167
332.160858 10.94737
333.133881 93.234161
333.15564 179.550507
333.849396 11.21333
334.211853 18.528681
335.110199 25.0
336.160004 451.849792
336.323425 28.44916
337.193329 141.180801
340.14502 91.538292
341.189636 58.394089
343.170746 64.584503
347.175049 24.43622
348.160217 365.449799
349.761322 12.30183
354.167267 50.437881
363.155792 12.95833
363.324615 13.66759
364.174072 16.14583
365.182434 1038.952026
365.404083 38.595928
365.456512 10.73253
365.596344 12.17175
365.743652 15.53472
365.775696 17.440479
366.155304 15.08003
366.508881 16.521601
367.141144 32.905731
367.174347 18.3592
368.183075 342.606293
368.296509 19.010099
368.517822 11.01389
368.940765 14.84058
380.183594 154.297302
380.30896 17.45455
382.18692 83.785606
384.132721 35.739658
394.551392 13.72003
394.87619 20.667271
394.924377 25.016029
395.165771 10.69167
395.195312 10.29643
396.060028 21.39683
396.189575 32.60215
397.1716 51.082809
397.211578 2261.346924
397.297821 14.45021
397.351715 31.71649
397.563293 18.20056
397.723267 61.567509
397.79776 24.14286
398.207184 32.3913
399.389618 13.85227
402.151337 37.192291
404.167755 48.251209
413.203705 31.265301
416.167023 110.215797
422.171906 15.88982
434.180634 116.226501
436.191345 306.924896
446.027924 10.78205
447.513306 10.35756
448.193237 922.27063
448.301086 14.19191
449.031555 20.99074
451.210876 31.071079
476.19696 21.87674
545.216797 26.029591
559.253784 67.734169
577.243774 131.951202
577.448547 15.06349
580.236816 27.801519
592.262939 32.963959
593.239746 37.578171
606.320557 17.503469
608.255066 35.300289
609.281128 720.913391
609.664734 13.97056
609.713318 28.030411
610.013916 12.03125
