>compound MLS000876987-01!(3S,3'R)-4-methyl-3'-phenylspiro[1H-1,4-benzodiazepine-3,2'-oxirane]-2,5-dione
>formula C17H14N2O3
>ionization [M+H]+
>parentmass 295.108
#inchi InChI=1S/C17H14N2O3/c1-19-15(20)12-9-5-6-10-13(12)18-16(21)17(19)14(22-17)11-7-3-2-4-8-11/h2-10,14H,1H3,(H,18,21)/t14-,17+/m1/s1
#inchikey APLKWZASYUZSBL
#Ion_Source LC-ESI
#Instrument qTof
#Compound_Source NIH Natural Product Library
#PI Dorrestein
#Data_Collector VVP/LMS
#Scan -1
#Precursor_MZ 295.108
#ExactMass 294.1
#Charge 1
#CAS_Number N/A
#Pubmed_ID N/A
#Smiles CN1C(=O)c2ccccc2NC(=O)[C@@]31O[C@@H]3c4ccccc4
#INCHI_AUX N/A
#Library_Class 1
#SpectrumID CCMSLIB00000080312
#IonMode Positive
#UpdateWorkflowName UPDATE-SINGLE-ANNOTATED-GOLD
#LibraryQualityString Gold
#TaskID b1d8e8f6646f4e71acdff9ca3d919d08
##Scan# 1778
#SpectrumFile p2-B07_GB7_01_17995.mzXML
#LibraryName NIH_Natural_Products_Library.mgf
#MQScore -1
#Organism NIH_Natural_Products_Library
#TIC_Query 0
#RT_Query -1
#MZErrorPPM -1
#SharedPeaks 0
#MassDiff 0
#LibMZ -1
#SpecMZ 295.108
#SpecCharge 0
#internalFilename spec-00000.mgf

>collision 10
95.82547 140.0
95.881981 280.0
95.961906 184.0
96.114044 112.0
96.205772 152.0
96.966675 176.0
97.215736 212.0
97.785667 172.0
98.517212 192.0
99.916046 168.0
100.307167 156.0
100.684273 220.0
100.922066 164.0
100.940063 112.0
101.064079 196.0
101.33638 148.0
101.695335 204.0
102.687248 216.0
102.967781 148.0
103.84008 184.0
104.050323 408.0
104.87294 176.0
105.034027 200.0
105.068703 152.0
105.44442 240.0
106.222488 136.0
108.043571 52.0
108.072533 200.0
108.244339 68.0
108.629837 192.0
110.726715 124.0
110.919479 148.0
111.118706 180.0
111.505081 180.0
112.123825 220.0
112.311478 160.0
112.480278 212.0
112.843643 124.0
113.256294 148.0
113.413094 116.0
113.693054 164.0
114.196571 100.0
115.127914 168.0
115.189857 36.0
116.052322 172.0
116.181007 72.0
116.198166 60.0
116.849152 204.0
117.031837 168.0
117.055779 180.0
117.6595 140.0
117.961937 136.0
118.007339 80.0
118.029388 1100.0
118.064514 244.0
118.163063 112.0
119.029762 180.0
120.045288 1268.0
120.084373 308.0
120.349586 168.0
120.598625 200.0
120.624855 56.0
121.050301 192.0
121.535919 80.0
121.742264 184.0
121.786186 140.0
121.902626 92.0
122.258881 184.0
122.289688 256.0
122.340317 108.0
123.072281 128.0
123.226891 212.0
124.800552 192.0
125.283508 208.0
125.579979 184.0
125.653587 116.0
127.71003 288.0
127.739273 172.0
127.908035 44.0
128.052139 192.0
128.604538 96.0
128.781204 160.0
129.063126 132.0
130.028229 536.0
130.134842 116.0
130.20752 208.0
131.033234 164.0
131.056107 100.0
131.081085 116.0
131.272568 100.0
132.047058 896.0
132.083344 128.0
132.161133 140.0
132.472488 180.0
132.69249 160.0
132.717194 160.0
132.800278 224.0
132.864502 200.0
133.048096 168.0
133.076477 156.0
133.576645 172.0
133.786057 96.0
134.048615 112.0
134.371429 184.0
134.419876 168.0
134.918777 144.0
135.205597 44.0
135.868286 144.0
136.072525 140.0
136.337326 152.0
136.572144 124.0
136.851395 68.0
137.007446 180.0
138.011032 244.0
139.14502 144.0
139.869064 112.0
139.960892 232.0
140.281296 212.0
140.300156 188.0
140.43692 144.0
140.793304 104.0
140.979935 72.0
143.670135 176.0
144.039429 212.0
144.140488 40.0
144.365204 136.0
144.494354 124.0
144.913345 92.0
144.954071 196.0
145.035416 124.0
145.34494 36.0
145.440933 132.0
145.477692 192.0
145.541763 148.0
145.657028 172.0
145.728073 232.0
145.808411 168.0
145.900772 176.0
145.943024 200.0
145.96875 228.0
145.993515 168.0
146.024567 34448.0
146.122635 136.0
146.1595 52.0
146.210037 132.0
146.255768 64.0
146.27742 52.0
146.332794 36.0
146.383362 180.0
146.400223 64.0
146.417084 48.0
146.438751 88.0
146.537521 100.0
146.609802 72.0
146.643539 52.0
146.715866 76.0
146.735153 44.0
146.752029 96.0
146.872604 112.0
146.911194 116.0
146.952209 88.0
146.971512 120.0
147.02623 2800.0
147.078705 48.0
147.328842 84.0
147.50766 56.0
147.558426 40.0
147.705948 36.0
147.805145 108.0
147.938248 116.0
148.030457 520.0
148.141678 128.0
148.270096 96.0
148.318558 72.0
148.415543 176.0
149.041763 144.0
149.343216 112.0
149.608459 72.0
150.261597 36.0
150.278671 52.0
150.637543 200.0
151.03598 180.0
151.06044 132.0
151.545181 72.0
151.787842 76.0
151.868774 128.0
152.062515 356.0
152.448181 188.0
153.068817 440.0
153.242966 64.0
154.210297 92.0
154.400665 48.0
154.469925 88.0
154.640656 76.0
155.088959 148.0
155.304672 136.0
155.411346 84.0
155.498199 116.0
155.756424 180.0
156.283478 60.0
157.862442 96.0
158.040039 192.0
159.054413 456.0
159.713333 132.0
160.060638 108.0
160.617599 88.0
161.07486 136.0
162.048462 120.0
164.058746 144.0
164.755447 164.0
165.069214 532.0
166.079025 132.0
167.075974 268.0
168.39534 108.0
171.060883 140.0
171.673157 56.0
172.059326 48.0
174.036057 60.0
177.065796 1028.0
177.487366 52.0
178.070267 172.0
179.080521 236.0
180.080536 1684.0
180.111435 192.0
181.085022 160.0
181.621094 164.0
182.098282 292.0
182.520752 116.0
183.099335 152.0
183.128952 60.0
190.020309 164.0
190.064575 464.0
191.06517 380.0
191.081802 188.0
191.537796 80.0
192.080811 128.0
193.158112 112.0
194.054733 196.0
194.078735 180.0
194.102509 144.0
194.296661 64.0
194.974182 116.0
195.065369 164.0
195.332855 48.0
195.388489 120.0
196.079056 128.0
202.921249 116.0
205.577957 176.0
206.057648 144.0
207.067413 172.0
207.096054 152.0
207.408371 108.0
208.077744 1208.0
208.798004 112.0
208.996506 208.0
209.077988 292.0
210.097076 180.0
211.035721 60.0
213.049973 200.0
215.05043 64.0
218.063843 160.0
218.111282 132.0
219.066162 140.0
220.069534 292.0
221.10202 204.0
221.125687 132.0
222.495148 48.0
223.073517 204.0
224.128006 164.0
231.163712 60.0
235.991013 144.0
236.073532 908.0
237.070206 528.0
238.075867 156.0
239.1138 196.0
254.092529 192.0
255.029724 152.0
255.872284 152.0
259.652435 64.0
276.031677 128.0
285.021729 56.0
287.041351 132.0
293.170349 128.0
294.04184 180.0
296.170044 108.0
297.45932 156.0
310.053894 132.0
310.323822 232.0
312.056427 208.0
312.853333 100.0
327.968536 100.0
329.979279 88.0
330.073273 124.0
330.098572 176.0
331.19516 32.0
332.097687 196.0
345.124298 136.0
364.539124 96.0
417.25824 88.0
447.763428 68.0
456.153839 96.0
540.827332 32.0
566.015564 120.0
759.99115 88.0
787.421265 52.0
813.479797 192.0
817.635254 128.0
828.421021 124.0
850.506287 116.0
858.371826 168.0
870.807678 68.0
975.265686 120.0
981.640686 228.0
1006.577942 256.0
1012.351318 208.0
1017.969666 204.0
1018.052246 196.0
1019.13208 160.0
1023.024292 228.0
1026.834595 180.0
1043.856323 184.0
1052.226074 188.0
1053.013794 172.0
1067.192383 72.0
1069.768555 188.0
1076.529785 148.0
1076.8302 148.0
1084.858643 40.0
1085.868408 180.0
1116.619141 152.0
1145.447266 224.0
1148.116211 220.0
1155.343384 80.0
1158.233887 200.0
1160.612549 184.0
1165.071533 164.0
1166.899658 144.0
1198.114624 180.0
1210.900269 180.0
1211.08728 224.0
1212.743164 160.0
1212.819458 188.0
1225.104736 148.0
1234.352417 160.0
1236.514038 176.0
1250.740845 100.0
1257.627075 228.0
1267.01062 48.0
1277.801758 176.0
1280.492432 208.0
1291.734009 172.0
1296.63855 192.0
1298.638794 112.0
1300.267456 120.0
1301.322632 76.0
1306.511475 184.0
1322.914551 124.0
1327.769043 228.0
1328.45813 168.0
1336.857056 192.0
1338.5896 80.0
1341.168579 88.0
1343.852173 156.0
1349.161499 204.0
1351.231201 100.0
1354.518066 160.0
1357.47168 124.0
1359.474243 184.0
1369.038086 232.0
1372.169678 136.0
1377.135864 144.0
1378.147827 340.0
1378.347412 40.0
1381.37854 188.0
1392.44458 172.0
1400.134399 92.0
1404.203613 72.0
1406.195557 196.0
1408.390625 164.0
1409.944702 80.0
1414.769043 72.0
1414.971191 188.0
1418.73938 64.0
1423.045654 120.0
1433.58374 176.0
1436.92395 220.0
1438.063354 92.0
1443.2229 208.0
1444.380005 152.0
1447.922119 148.0
1448.035645 116.0
1448.103882 108.0
1449.10376 188.0
1450.081299 100.0
1451.878052 164.0
1454.002197 128.0
1454.176758 168.0
1454.99646 192.0
1455.102783 260.0
1463.283203 192.0
1470.486694 172.0
1480.807983 164.0
1483.604736 128.0
1491.834106 156.0
1492.349121 156.0
1495.734009 160.0
