>compound Deflazacort
>formula C25H31NO6 
>ionization [M+H]+
>parentmass 442.223022
#inchi InChI=1S/C25H31NO6/c1-13-26-25(20(30)12-31-14(2)27)21(32-13)10-18-17-6-5-15-9-16(28)7-8-23(15,3)22(17)19(29)11-24(18,25)4/h7-9,17-19,21-22,29H,5-6,10-12H2,1-4H3/t17-,18-,19-,21+,22+,23-,24-,25+/m0/s1
#inchikey FBHSPRKOSMHSIF
#Ion_Source LC-ESI
#Instrument qTof
#Compound_Source Isolated
#PI Sirenas
#Data_Collector Ed Esquenazi 
#Scan -1
#Precursor_MZ 442.224
#ExactMass 0.0
#Charge 1
#CAS_Number N/A
#Pubmed_ID N/A
#Smiles N/A
#INCHI_AUX N/A
#Library_Class 3
#SpectrumID CCMSLIB00000005310
#IonMode Positive
#UpdateWorkflowName UPDATE-SINGLE-ANNOTATED-BRONZE
#LibraryQualityString Bronze
#TaskID d19310cd93df49b68e9fcbec27720eb5
##Scan# 12
#SpectrumFile Deflazacort.mgf
#LibraryName fda_library.mgf
#MQScore -1
#Organism fda_library
#TIC_Query 0
#RT_Query -1
#MZErrorPPM -1
#SharedPeaks 0
#MassDiff 0
#LibMZ -1
#SpecMZ 442.224
#SpecCharge 0
#internalFilename spec-00000.mgf

>collision 10
100.039291 470.893494
100.074104 33.82946
100.092331 6.011905
100.115173 6.55147
100.262833 4.673077
100.350822 14.38043
100.497719 5.884804
101.021973 164.461197
103.0541 28.36364
105.070419 399.040405
105.114037 6.075
105.134758 13.01333
105.177567 6.001543
105.231094 7.708333
105.613304 10.34626
106.062469 60.626549
106.103661 9.070175
107.048622 111.726898
107.085464 389.892914
107.424126 1.6875
107.505928 43.353531
108.415543 21.06336
109.027245 49.123051
109.090759 19.802311
109.098907 71.842293
110.059608 523.152588
110.097336 85.373871
110.122665 10.03704
110.147812 9.761363
110.28112 2.5
110.337753 7.843137
110.583069 5.633333
110.773041 6.088768
111.077713 23.492229
112.039261 150.951202
112.187195 4.003205
113.383087 9.370614
113.491592 8.711957
113.564751 19.150511
114.054291 688.688599
114.118896 8.666667
114.182083 1.666667
114.204514 5.047619
114.230415 12.16447
114.289917 7.333333
114.315948 10.67539
114.357262 8.818548
114.408958 4.007576
114.442451 7.388514
114.487312 26.18116
114.509453 7.343468
114.602547 11.68056
114.636055 12.66774
114.650711 9.57615
115.037338 87.892303
115.066673 3.25
115.906281 6.673611
116.07061 62.44191
117.069366 221.807297
117.107597 1.666667
117.120209 4.387821
117.713715 13.48007
118.463028 10.72727
118.663795 6.011364
119.048615 100.491402
119.085709 855.512573
119.126602 2.35
119.412735 5.041667
119.518112 4.136111
119.582664 3.002778
119.678162 4.225
120.730537 22.11599
121.027733 65.791473
121.065041 3415.965088
121.097023 231.316895
121.132233 24.20303
121.175629 16.818939
121.204926 7.76923
121.218018 16.882219
121.26358 26.26016
121.28421 3.148809
121.300079 23.403839
121.320808 12.23184
121.39653 8.086538
121.415848 7.054825
121.434486 11.06373
121.446831 20.00231
121.458611 11.45
121.477959 7.741667
121.511551 21.48259
121.588448 6.98077
122.069771 94.086952
122.295609 13.78125
122.379776 13.33415
122.404793 8.666667
122.506821 18.78788
122.924011 4.852273
122.996315 6.001543
123.08242 330.478699
123.247658 29.270241
123.298004 23.49069
123.334526 8.074494
123.357132 4.054824
123.471634 8.019736
123.568054 3.440476
123.629974 2.722222
123.673706 11.17339
123.867256 15.21365
124.038879 5537.558105
124.102242 7.386905
124.112389 34.461369
124.125275 14.48333
124.140884 2.053571
124.152855 14.34722
124.18634 20.43434
124.198853 14.42976
124.207367 17.81818
124.255554 28.610649
124.285202 5.333333
124.339539 12.52134
124.358154 8.380208
124.392784 9.93889
124.416359 9.33477
124.424133 7.335526
124.441208 5.893518
124.45816 16.533331
124.482414 37.127449
124.496391 16.201191
124.972023 3.670455
125.057281 43.049919
125.096069 13.78922
125.279305 4.054824
125.368874 7.411765
125.681717 18.225
126.054405 249.855698
126.089005 33.960941
126.544716 48.871109
127.838982 12.18841
128.062714 84.659286
128.070755 16.68627
128.291565 6.716667
128.363663 11.20119
129.069763 185.570206
129.10202 5.777778
129.432739 7.121212
129.480377 7.880051
130.02327 2.35
130.142303 4.335318
131.048996 65.099907
131.086288 411.486603
131.132385 9.400001
131.351486 5.480072
131.600555 7.382936
131.681961 17.444441
132.079025 134.265701
132.504791 12.06833
132.602524 6.135
132.72673 6.357143
132.818985 20.054819
133.063385 471.484985
133.100998 251.043396
133.17601 20.78014
133.216675 8.774123
133.250519 26.65988
133.296921 15.84396
133.481842 4.6875
133.726593 7.019608
133.806488 7.714285
133.964111 27.018749
134.055847 53.5471
134.169556 9.688597
134.310562 12.02885
134.342819 2.367424
134.358948 6.070402
134.565048 79.528893
135.063461 34.251289
135.080048 1622.552979
135.116608 20.92647
135.146423 2.722222
135.246292 2.041667
135.260315 14.07997
135.393585 14.02042
135.405396 3.703704
135.413483 3.0
135.543274 20.32432
135.595718 8.789634
136.046112 63.124069
137.091431 53.35437
137.245422 17.023439
137.428268 15.36687
137.44545 4.865196
137.518616 12.12803
138.05426 893.894104
138.091812 94.407516
138.130707 17.25
138.172302 17.010139
138.201492 11.40789
138.249664 7.388158
138.319382 7.34248
138.342987 4.592948
138.424179 9.300506
138.651123 10.1875
139.073486 14.9481
139.549561 17.366671
139.61084 11.415
140.031937 79.988922
140.068115 62.351749
140.08432 1.666667
140.611862 9.001126
141.068985 106.620796
141.251404 11.4406
141.272614 2.672619
141.334732 30.661449
141.352188 27.430269
141.380417 16.2526
141.408585 7.972826
141.479462 12.57576
141.516769 7.921875
141.538605 14.29912
141.661469 13.46959
142.049652 10206.570312
142.098648 49.549641
142.110931 34.880081
142.137009 28.49345
142.163086 7.333333
142.171875 11.72222
142.205124 4.469445
142.235214 29.13372
142.262665 9.020833
142.283417 16.030701
142.308273 8.375
142.388107 38.349499
142.405548 8.054487
142.447098 20.107559
142.474075 5.107456
142.485992 6.375
142.498413 4.297619
142.511856 36.832321
142.533401 20.1847
142.548065 2.482143
142.586227 21.39646
142.626877 2.708333
142.636353 16.741911
142.644669 15.34409
142.702789 6.037037
142.715393 4.670455
142.769226 9.002451
142.806763 7.880051
142.981522 5.444445
142.998062 8.152778
143.083633 197.508301
143.127029 9.833333
143.136581 21.40904
143.198074 22.071011
143.255295 8.055555
143.680649 9.840278
143.785461 20.502081
143.822952 10.09643
143.881363 6.520061
144.124252 5.037037
144.370682 21.00054
144.390884 9.680555
144.620926 9.423913
145.065872 317.222595
145.100906 299.952606
145.163208 12.96368
145.2827 4.44079
145.807312 3.402778
145.826462 3.857143
146.013412 9.063725
146.053528 35.293499
146.07135 99.665863
146.09314 35.667
146.164597 6.335318
146.244522 13.66755
146.274826 10.22222
146.316086 1.694445
146.40094 2.449074
146.846771 5.840278
146.876389 3.125
146.902008 10.22685
147.079865 4848.34082
147.112839 157.712097
147.138702 26.58824
147.171555 7.001984
147.197311 41.760799
147.212982 7.19853
147.239288 17.64377
147.264435 13.17754
147.277069 11.35874
147.315414 3.733333
147.323502 10.00439
147.343994 20.19355
147.43895 3.482143
147.496674 13.22222
147.522049 3.034091
147.552292 19.285721
147.601196 21.83046
147.617798 15.85201
147.843307 18.251711
147.953354 7.668478
148.250229 10.41667
148.404465 6.625
148.445023 7.041667
148.500015 7.189394
148.694809 6.395833
148.720261 6.702587
149.057465 184.618103
149.094681 113.243202
149.225555 13.67816
149.495087 5.884804
150.088989 58.720242
150.507584 6.25
151.079849 16.000931
151.094589 54.41275
151.109177 77.538673
151.195389 4.363636
151.430847 11.09399
152.067032 155.891098
152.10762 38.743591
153.00177 11.41667
153.346313 23.50174
154.049881 76.737457
154.083649 128.816605
154.123535 40.64209
154.244919 11.66786
154.269409 3.025
154.400711 14.14583
154.567993 2.386905
154.669754 3.555556
155.083969 246.731598
155.494675 6.334596
156.064926 141.167801
156.137375 1.666667
156.170303 14.6875
157.065445 101.552299
157.100388 405.954803
157.154877 2.041667
157.234741 7.671297
157.531525 4.0
157.581192 5.136111
157.654877 2.520833
157.701859 7.2
158.020874 10.76894
158.070862 248.785004
158.122147 3.083333
158.15654 12.13404
158.259918 5.054487
158.303574 14.52976
158.423523 2.671296
158.45285 13.19853
158.488419 10.52273
159.079834 1078.35498
159.117126 75.753853
159.129486 14.40333
159.212204 2.694444
159.473267 21.61754
159.5056 4.844298
159.55542 2.008333
159.954376 4.630952
160.110519 36.83456
160.245865 2.6875
160.372879 18.444441
160.413315 6.684524
160.490433 3.708333
161.095627 656.783386
161.158813 1.666667
161.221878 8.680555
161.249878 12.12963
161.282272 19.363331
161.30661 2.003788
161.322266 8.462607
161.379715 10.02778
161.407318 4.362179
162.055969 31.35507
162.098923 123.2117
163.075958 163.4487
164.10437 37.086929
165.090225 41.280022
165.11647 50.461361
166.086014 49.080601
166.187912 16.59375
166.223267 4.4
167.086426 36.602852
167.293365 6.306159
168.100281 47.26408
169.061691 27.143259
169.102097 146.502106
170.0793 24.192949
170.860016 14.75758
171.079163 1193.254028
171.113785 153.832001
171.172379 9.888888
171.218185 7.296568
171.263748 18.889549
171.334702 16.085991
171.353607 12.33333
172.070633 16.48159
172.128479 13.725
172.2173 8.132247
172.325165 10.88005
173.096695 883.090088
173.144745 2.583333
173.291443 9.926075
173.431946 5.025
173.450241 3.688725
175.073502 138.608002
175.108719 56.299259
176.107956 46.199699
177.089905 32.5
177.12738 49.41338
178.084717 12.04167
178.14621 5.633333
178.652252 7.334596
179.086273 101.441803
179.113541 15.78922
179.253387 1.708333
180.100937 168.711594
180.886505 6.334596
181.100082 126.306999
182.072723 53.789379
182.734863 14.04167
182.767609 1.666667
183.041122 17.51042
183.08226 377.320099
183.111191 29.034821
183.412582 11.40833
184.060196 667.456787
184.103073 84.272263
184.164017 4.973485
184.18959 4.483333
184.333908 24.074329
184.445648 8.748334
184.52948 2.815476
185.095963 449.737213
185.274551 25.459249
185.315948 7.430555
185.434555 3.011905
185.871811 4.416667
186.126648 12.83333
186.409897 7.854167
187.076706 95.310402
187.111847 379.960693
187.361267 7.669445
187.48674 6.728535
188.365173 6.075
189.057388 26.473961
189.087982 266.635101
190.125122 19.706699
191.519089 22.491671
192.091415 40.340408
192.10701 58.333679
193.10228 67.049858
194.114365 27.19342
195.078491 274.917999
195.11232 85.426514
195.142059 2.003788
195.326767 5.734848
195.934998 3.333333
195.984039 13.65333
196.109436 41.789589
196.349136 2.680556
197.094635 351.326691
197.131546 142.5504
197.185608 3.555556
197.462158 6.339743
197.575638 6.446428
198.676392 6.340909
199.111877 363.516693
199.146637 99.949303
199.746643 5.028846
200.037292 9.160256
201.089371 114.335403
201.126083 85.875908
202.098969 147.692093
202.891159 3.773809
203.352188 8.066667
206.083481 10.85256
206.115021 47.130322
207.080093 36.23753
207.117737 169.725998
208.087433 90.339394
208.87439 3.640152
208.888687 5.190476
209.095367 242.256805
209.135529 21.77564
209.184113 6.375
209.367508 11.70455
209.399643 3.125
209.902786 11.17647
210.07811 2.444444
210.103302 189.847
210.16478 15.49709
210.348465 22.27969
210.470505 2.367424
210.546616 6.906746
211.110886 574.092773
211.144562 6.003788
211.225571 6.33477
211.40451 5.510417
213.126984 390.475098
214.116867 15.18056
214.157013 7.802778
215.09967 117.383499
215.238754 7.001263
215.351471 22.507851
216.091705 62.77356
217.101288 39.576149
218.112503 36.542351
219.078979 26.72794
219.119415 74.36541
219.171677 8.047619
219.944321 17.373369
219.965164 2.733333
220.133514 32.440041
220.148285 26.76025
221.093628 121.896202
221.12767 24.025841
221.272415 8.20119
222.104324 105.661301
222.142883 30.70525
222.241196 2.0
222.375214 3.518939
222.479828 10.00833
222.918121 20.1702
223.109375 282.47641
223.14476 22.313749
223.260529 3.640152
223.529236 7.334459
223.883728 12.06373
223.997971 14.23
224.120285 164.7789
224.185074 2.005952
224.636978 11.78241
225.092484 22.261589
225.126236 1504.473999
225.187042 2.347222
225.222839 7.333333
225.290787 18.578329
225.38472 3.686404
225.414078 5.148809
225.494415 8.004902
225.509598 12.36364
225.698486 13.28656
226.037369 4.42803
226.179428 19.813801
226.383286 15.66801
226.660889 4.666667
226.807556 5.777778
226.925003 14.01667
227.103149 72.4132
227.140396 480.684296
227.489166 12.75347
227.552109 3.367424
227.935394 8.023809
229.461685 29.013889
229.940903 3.708333
230.112274 93.529297
230.833389 12.81333
232.087021 40.530739
232.121552 83.210991
232.878021 4.668651
233.097946 58.642109
233.377335 8.429762
234.102432 212.276596
234.139481 37.024731
234.199753 5.266667
234.926437 2.958333
235.077698 37.111561
235.109314 167.507401
235.145966 57.0662
235.227554 2.016667
235.257202 2.761364
236.122055 68.14077
236.150696 32.358971
236.876724 5.415
237.126022 328.788208
237.208878 6.454545
237.774414 3.75
238.080917 37.786949
238.308258 13.46959
239.106079 86.851303
239.141602 702.870911
239.183075 37.102402
239.254608 6.364899
240.118713 56.789082
240.238861 5.115741
241.120377 38.24984
241.158356 536.000793
241.217331 2.670455
241.233521 2.333333
241.249756 2.041667
241.481781 2.361111
241.714691 19.684521
242.11644 41.38615
243.135574 37.6875
243.801376 9.742284
244.007965 9.685185
244.075958 37.376652
244.122574 74.678917
245.095718 50.402328
245.131683 51.262581
245.417511 7.046875
246.11203 87.78344
246.14888 44.779461
247.112701 98.445831
247.832275 7.102273
248.089752 24.818859
248.114868 118.210899
248.150024 9.04537
248.825043 8.097222
249.124374 414.108185
249.155197 5.041667
249.395767 4.055556
249.670364 16.486111
250.097244 54.110649
250.134293 55.674381
250.737915 11.67857
251.096176 29.670309
251.143555 33.33559
251.451508 7.382936
252.136292 202.984894
253.11528 12.59259
253.161423 8.494048
253.250488 2.053571
254.083923 11.14969
255.108688 12.85799
255.135147 114.722099
255.40863 21.005211
256.639008 6.135
257.101807 18.36381
257.159454 18.59631
258.099365 53.748051
259.110443 150.123993
259.145355 67.264793
259.665771 9.083333
260.117981 96.620789
261.084229 37.227509
261.123016 66.53019
261.504944 13.67
261.943939 14.75212
262.138489 450.456512
262.287506 5.680555
263.050659 38.341801
263.100555 24.86471
263.662537 9.898149
263.946716 18.00952
264.113098 21.000641
264.126801 53.862751
264.144287 153.601898
264.223511 1.666667
264.402374 10.53333
264.484406 13.42857
265.010223 6.070402
265.112152 14.3818
265.157349 944.123413
265.225464 3.703704
265.38147 4.5
265.43512 11.46136
265.664429 6.001984
266.135864 55.049381
266.199585 2.669444
266.695221 3.080128
267.140442 64.224998
267.17514 114.380997
267.404327 4.297619
267.570374 5.444445
267.621735 10.06618
267.934845 10.66742
267.99765 2.053571
269.13681 10.48522
270.292877 8.518678
271.135101 36.157051
272.123444 99.495811
272.161377 30.19425
272.195129 20.405001
273.141907 9.372808
273.245911 10.18673
274.052979 23.891029
274.48819 8.774123
275.137421 100.116501
275.177063 3.075
275.417603 10.73253
275.849121 6.703947
276.075714 6.427083
276.130402 89.226509
277.122101 130.854294
277.157867 387.885101
277.384155 9.745155
278.122253 105.770401
279.127869 81.821617
279.433228 18.70476
280.112549 36.333328
280.167358 92.888008
281.149506 185.492096
281.822845 2.008333
282.184326 344.652313
282.299133 17.26754
282.337006 2.027778
282.594116 4.481482
282.652649 15.09358
282.723694 12.81492
282.853577 3.047619
283.16626 113.261002
283.208466 10.04688
283.337219 22.69919
283.565704 14.83627
283.747345 6.057692
284.200989 47.219742
287.143799 297.223907
287.203552 2.333333
287.339172 1.6875
287.852448 6.840517
289.530792 2.041667
290.126862 92.111328
292.139496 36.958328
293.147766 34.176472
293.898346 10.66667
294.18457 376.036194
294.363739 7.088889
294.423431 6.102564
294.441559 8.520061
294.614746 37.986691
294.633331 3.555556
294.670288 11.57341
295.0625 4.001812
295.168091 104.195702
295.510712 12.49123
295.985168 12.97663
296.121643 5.19853
296.157166 15.15705
297.136963 25.431919
298.178101 14.35459
300.153046 47.388088
300.19281 96.382248
300.230286 2.053571
300.423035 16.67816
300.453186 7.102273
300.742401 12.73253
303.166809 2.666667
304.170135 116.646301
304.593842 17.64583
305.150452 189.8405
306.434418 8.049797
307.153748 64.543404
307.171753 10.33333
308.129272 72.007652
308.189117 2.893518
308.697052 16.135639
310.174622 27.44643
310.270813 32.166672
310.289185 4.358333
310.317474 43.814121
310.415161 10.92308
310.485321 15.33397
310.607941 9.685185
311.131775 8.746875
311.200256 9.428572
311.380951 6.449713
312.078125 13.625
312.11203 50.240101
312.149933 20.25181
312.195435 3604.414062
312.270233 15.46296
312.296295 11.73016
312.3508 15.6627
312.375549 7.306159
312.412292 28.23978
312.468567 37.877239
312.530273 54.689659
312.575806 37.91407
312.628387 9.599999
312.677582 24.347481
312.720642 14.09918
312.774841 22.731939
312.812927 10.83
312.83786 31.000731
312.865417 24.745371
312.925964 22.1201
313.08371 12.71429
313.145844 27.56085
313.163757 9.666667
313.293396 5.906746
313.708313 18.028851
315.308929 7.760417
316.126984 31.699301
319.152527 9.556818
320.170715 60.754799
320.257812 9.748563
320.30188 10.50718
321.031952 9.556818
321.636078 17.669451
322.178497 173.934006
322.390869 13.72676
322.516388 13.42391
322.616364 9.357142
323.159485 266.446106
323.318512 13.44004
323.46051 4.694444
324.189728 44.288101
324.227417 1.75
324.634003 11.76961
324.800812 9.094697
328.184387 40.060051
328.882599 4.341667
330.221466 8.491228
331.152954 66.574471
331.499725 3.080128
331.638672 8.054825
336.192963 112.012901
336.273651 2.0
338.094269 9.66821
338.279816 10.28004
338.327942 4.402778
338.875122 5.0
340.192291 728.974915
340.450623 2.375
340.497314 4.335784
340.568054 16.366791
340.881592 11.20167
341.165771 19.161011
341.31308 8.66793
341.539825 13.7219
341.99469 4.694444
342.162445 45.945648
344.12619 9.481482
346.176117 25.023199
352.185791 88.896767
354.161285 12.2803
358.063599 13.5328
358.201752 308.319611
358.761658 5.357143
359.097748 19.68873
359.876312 15.67157
364.190582 104.501198
364.475098 30.000731
365.173248 11.87879
366.170349 21.88032
372.557922 2.027778
380.02179 5.391026
380.900452 29.02669
382.200195 492.270294
382.303894 7.690476
382.412628 3.773809
382.569214 4.668334
382.600586 5.335318
382.793091 11.01667
382.851532 71.434822
382.991272 9.560185
383.05249 11.68254
383.08429 10.89167
383.513123 14.0
385.190094 224.110001
385.794098 11.375
385.979034 6.702587
386.491028 22.39583
386.690247 8.284091
397.598846 4.541667
397.748535 20.647659
397.833923 23.005951
397.920837 6.541667
398.009766 3.926282
398.296143 13.09122
398.317108 8.130208
398.400452 18.043831
399.254944 17.70833
399.368744 9.523809
400.148712 33.478451
400.211517 2626.988037
400.293457 6.739478
400.347076 3.047619
400.382843 72.14576
400.418823 37.84425
400.451477 6.378623
400.477966 37.58709
400.502869 10.20833
400.569672 39.45562
400.62265 22.74004
400.696625 6.388889
400.727325 5.387821
400.778503 12.00694
400.812653 11.70328
400.858856 18.68152
401.298401 15.13611
401.336121 2.0
401.667236 8.458333
405.388672 29.40373
409.187775 68.731369
418.102051 11.5126
424.200775 37.25518
424.640289 5.428572
427.204254 123.6371
439.495636 4.120098
439.605011 6.352941
442.223022 679.350281
442.271088 30.05093
442.344543 22.020479
442.439667 6.333333
442.613953 17.490499
442.713531 2.761364
442.872528 4.963235
443.028259 5.136111
443.369476 12.87076
443.677216 4.002778
444.60199 4.734848
444.843079 4.408333
