>compound Paclitaxel (Taxol)
>formula C47H51NO14
>ionization [M+H]+
>parentmass 854.3382317640904
#inchi InChI=1S/C47H51NO14/c1-25-31(60-43(56)36(52)35(28-16-10-7-11-17-28)48-41(54)29-18-12-8-13-19-29)23-47(57)40(61-42(55)30-20-14-9-15-21-30)38-45(6,32(51)22-33-46(38,24-58-33)62-27(3)50)39(53)37(59-26(2)49)34(25)44(47,4)5/h7-21,31-33,35-38,40,51-52,57H,22-24H2,1-6H3,(H,48,54)/t31-,32+,33+,35-,36+,37+,38?,40-,45+,46-,47+/m0/s1
#inchikey RCINICONZNJXQF
#Ion_Source LC-ESI
#Instrument qTof
#Compound_Source Commercial
#PI Dorrestein
#Data_Collector Garg_Neha
#Scan -1
#Precursor_MZ 854.338
#ExactMass 853.331
#Charge 1
#CAS_Number 33069-62-4, 157069-30-2, 1203669-79-7
#Pubmed_ID N/A
#Smiles C1=CC=CC(=C1)C(=O)N[C@H]([C@H](C(O[C@H]2C[C@@]3(C(C(=C2C)[C@H](C(=O)[C@]4(C([C@]5([C@@H](C[C@H]4O)OC5)OC(C)=O)[C@@H]3OC(C6=CC=CC=C6)=O)C)OC(C)=O)(C)C)O)=O)O)C7=CC=CC=C7
#INCHI_AUX N/A
#Library_Class 1
#SpectrumID CCMSLIB00000078027
#IonMode Positive
#UpdateWorkflowName UPDATE-SINGLE-ANNOTATED-GOLD
#LibraryQualityString Gold
#TaskID 77f51c88eb8b467eb4a01dd2d0cb90d2
##Scan# 1875
#SpectrumFile Plate1_21_40_GG2_01_16489.mzXML
#LibraryName FDALibrary_2_04302014.mgf
#MQScore -1
#Organism FDALibrary_2_04302014
#TIC_Query 0
#RT_Query -1
#MZErrorPPM -1
#SharedPeaks 0
#MassDiff 0
#LibMZ -1
#SpecMZ 854.338
#SpecCharge 0
#internalFilename spec-00000.mgf

>collision 0
105.0334 17.15
133.0647 5.49
133.0999 5.78
149.0593 7.32
159.0805 3.58
161.0954 5.03
177.0913 5.96
179.086 3.97
183.1186 4.95
209.097 4.64
211.1127 4.77
211.1471 5.52
225.1287 4.46
229.1203 4.44
235.1479 3.61
237.1282 5.36
239.1424 6.65
240.1023 30.48
251.145 4.67
253.1574 5.65
263.1422 6.14
268.0967 26.43
281.1535 12.61
286.1074 100.0
291.1363 8.79
299.1642 6.21
309.1477 25.09
327.1591 25.53
345.1676 4.64
369.1668 9.8
387.1802 15.73
429.1931 4.25
431.1755 4.23
447.2074 4.18
449.1951 5.62
491.2071 13.23
492.2124 4.2
509.2169 41.93
510.219 12.71
551.2259 20.91
552.2367 9.52
569.2402 23.0
570.2424 7.04
655.2533 7.56
656.2652 4.18
776.3065 6.01
854.334 1.16
