>compound Vincristine
>formula C46H56N4O10
>ionization [M+Na]+
>parentmass 847.387329
#inchi InChI=1S/C46H56N4O10/c1-7-42(55)22-28-23-45(40(53)58-5,36-30(14-18-48(24-28)25-42)29-12-9-10-13-33(29)47-36)32-20-31-34(21-35(32)57-4)50(26-51)38-44(31)16-19-49-17-11-15-43(8-2,37(44)49)39(60-27(3)52)46(38,56)41(54)59-6/h9-13,15,20-21,26,28,37-39,47,55-56H,7-8,14,16-19,22-25H2,1-6H3/t28-,37-,38+,39+,42-,43+,44-,45-,46-/m0/s1
#inchikey OGWKCGZFUXNPDA
#origInchi InChI=1S/C46H56N4O10.H2O4S/c1-7-42(55)22-28-23-45(40(53)58-5,36-30(14-18-48(24-28)25-42)29-12-9-10-13-33(29)47-36)32-20-31-34(21-35(32)57-4)50(26-51)38-44(31)16-19-49-17-11-15-43(8-2,37(44)49)39(60-27(3)52)46(38,56)41(54)59-6;1-5(2,3)4/h9-13,15,20-21,26,28,37-39,47,55-56H,7-8,14,16-19,22-25H2,1-6H3;(H2,1,2,3,4)/t28-,37-,38+,39+,42-,43+,44-,45-,46-;/m0./s1
#Ion_Source LC-ESI
#Instrument qTof
#Compound_Source Commercial
#PI Dorrestein
#Data_Collector Garg_Neha
#Scan -1
#Precursor_MZ 847.389
#ExactMass 824.4
#Charge 1
#CAS_Number 2068-78-2
#Pubmed_ID N/A
#Smiles C1(=CC2=C(C=C1[C@@]3(C4=C(C5=C(N4)C=CC=C5)CCN6C[C@](C3)(C[C@@](C6)(O)CC)[H])C(OC)=O)[C@]78[C@@](N2C=O)([C@]([C@@H]([C@]9([C@@]7(N(CC8)CC=C9)[H])CC)OC(=O)C)(C(OC)=O)O)[H])OC.S(=O)(=O)(O)O
#INCHI_AUX N/A
#Library_Class 1
#SpectrumID CCMSLIB00000078061
#IonMode Positive
#UpdateWorkflowName UPDATE-SINGLE-ANNOTATED-GOLD
#LibraryQualityString Gold
#TaskID 77f51c88eb8b467eb4a01dd2d0cb90d2
##Scan# 1102
#SpectrumFile Plate1_61_88_GG4_01_16491.mzXML
#LibraryName FDALibrary_2_04302014.mgf
#MQScore -1
#Organism FDALibrary_2_04302014
#TIC_Query 0
#RT_Query -1
#MZErrorPPM -1
#SharedPeaks 0
#MassDiff 0
#LibMZ -1
#SpecMZ 847.389
#SpecCharge 0
#internalFilename spec-00000.mgf

>collision 0
100.037 12.69
195.0881 12.38
224.1289 12.69
226.1414 13.62
353.1918 12.69
354.1943 14.55
384.1939 14.24
384.2289 13.62
385.1971 14.86
463.2027 12.38
475.2095 14.86
552.2899 13.31
566.1983 13.62
595.2963 14.86
605.2958 12.38
658.2609 16.72
663.3448 14.55
663.396 22.6
664.3466 20.12
706.3656 21.98
733.3447 14.86
738.4013 17.34
745.3567 19.2
747.3629 30.03
748.3848 15.79
755.3365 20.43
765.3894 54.18
766.3868 26.63
773.3548 23.84
787.3637 65.63
788.3757 26.63
789.3647 13.0
805.3749 100.0
806.3748 36.53
815.3631 27.24
817.363 14.24
847.3867 744.89
