>compound Vincristine
>formula C46H56N4O10
>ionization [M+H]+
>parentmass 825.40509
#inchi InChI=1S/C46H56N4O10/c1-7-42(55)22-28-23-45(40(53)58-5,36-30(14-18-48(24-28)25-42)29-12-9-10-13-33(29)47-36)32-20-31-34(21-35(32)57-4)50(26-51)38-44(31)16-19-49-17-11-15-43(8-2,37(44)49)39(60-27(3)52)46(38,56)41(54)59-6/h9-13,15,20-21,26,28,37-39,47,55-56H,7-8,14,16-19,22-25H2,1-6H3/t28-,37-,38+,39-,42-,43+,44?,45-,46-/m0/s1
#inchikey OGWKCGZFUXNPDA
#Ion_Source LC-ESI
#Instrument qTof
#Compound_Source Commercial
#PI Dorrestein
#Data_Collector Garg_Neha
#Scan -1
#Precursor_MZ 825.407
#ExactMass 824.4
#Charge 1
#CAS_Number 57-22-7
#Pubmed_ID N/A
#Smiles C123[C@]4(N(CC1)CC=C[C@@]4(CC)[C@@H]([C@]([C@@]2(N(C5C3=CC(=C(C=5)OC)[C@@]6(C7NC8=CC=CC=C8C=7CC[N@]9C[C@](C[C@](C6)([H])C9)(O)CC)C(OC)=O)C=O)[H])(O)C(=O)OC)OC(=O)C)[H]
#INCHI_AUX N/A
#Library_Class 1
#SpectrumID CCMSLIB00000078066
#IonMode Positive
#UpdateWorkflowName UPDATE-SINGLE-ANNOTATED-GOLD
#LibraryQualityString Gold
#TaskID 77f51c88eb8b467eb4a01dd2d0cb90d2
##Scan# 1098
#SpectrumFile Plate1_61_88_GG4_01_16491.mzXML
#LibraryName FDALibrary_2_04302014.mgf
#MQScore -1
#Organism FDALibrary_2_04302014
#TIC_Query 0
#RT_Query -1
#MZErrorPPM -1
#SharedPeaks 0
#MassDiff 0
#LibMZ -1
#SpecMZ 825.407
#SpecCharge 0
#internalFilename spec-00000.mgf

>collision 0
122.0948 4.82
138.1276 4.26
144.0789 6.27
156.1384 3.84
213.1353 3.92
214.083 4.9
224.1296 12.92
225.136 7.51
226.1461 4.52
265.1697 4.52
281.1594 5.88
283.183 4.82
353.1838 4.9
413.1934 4.9
455.2115 8.91
497.207 3.62
522.2515 3.67
555.2368 3.62
556.2277 3.67
604.2984 6.14
616.3011 4.99
621.298 4.95
635.307 4.05
663.3498 8.87
664.3099 4.52
664.3514 4.61
678.3368 3.62
681.329 4.56
687.339 9.89
688.3539 4.43
692.3037 3.71
694.3299 8.49
695.3255 3.75
696.34 5.88
705.3622 27.63
706.3635 15.01
723.374 16.25
724.3754 7.63
733.362 7.12
734.3587 3.84
747.3749 13.9
748.3879 6.87
765.3882 54.2
766.3866 31.6
767.3844 12.28
775.3685 4.82
783.393 11.9
784.4076 6.48
805.3746 4.78
807.3981 59.96
808.3979 28.91
823.3899 100.0
824.3928 66.31
825.4065 406.65
