>compound Genistein
>formula C15H10O5
>ionization [M+H]+
>parentmass 271.059753
#inchi InChI=1S/C15H10O5/c16-9-3-1-8(2-4-9)11-7-20-13-6-10(17)5-12(18)14(13)15(11)19/h1-7,16-18H
#inchikey TZBJGXHYKVUXJN
#Ion_Source DI-ESI
#Instrument qTof
#Compound_Source Isolated
#PI Norberto Lopes
#Data_Collector Denise Silva
#Scan -1
#Precursor_MZ 271.06
#ExactMass 270.053
#Charge 1
#CAS_Number 485-72-3
#Pubmed_ID  
#Smiles O=C1C2=C(O)C=C(O)C=C2OC=C1C3=CC=C(O)C=C3
#INCHI_AUX  
#Library_Class 3
#SpectrumID CCMSLIB00000081284
#IonMode Positive
#UpdateWorkflowName UPDATE-SINGLE-ANNOTATED-BRONZE
#LibraryQualityString Bronze
#TaskID e04bbba8dfd3426d9360f8579c51ac90
##Scan# 1
#SpectrumFile gnps_Genistein_pos_MplusH.mgf
#LibraryName gnps_library.mgf
#MQScore -1
#Organism gnps_library
#TIC_Query 0
#RT_Query -1
#MZErrorPPM -1
#SharedPeaks 0
#MassDiff 0
#LibMZ -1
#SpecMZ 271.06
#SpecCharge 0
#internalFilename spec-00000.mgf

>collision 0
115.0532 7.87
119.0484 5.0
121.0277 6.68
128.0603 3.88
129.0683 2.14
131.048 8.66
135.0441 4.46
137.0235 3.26
141.0684 30.81
144.0576 5.06
145.0487 18.76
149.0227 14.95
150.0312 4.09
152.0617 3.87
153.017 100.0
157.0657 3.32
163.0387 2.38
165.0181 5.25
169.0663 33.28
173.0605 4.66
185.0579 2.81
187.0754 7.75
197.0607 32.08
200.0462 8.0
213.0546 5.21
215.0719 44.88
225.0546 5.41
226.0623 2.84
243.0665 25.35
253.0502 18.4
271.0615 28.8
