>compound Ammonium Glycyrrhizinate (AMGZ)
>formula C42H62O16
>ionization [M+Na]+
>parentmass 845.3930066040905
#inchi InChI=1S/C42H62O16/c1-37(2)21-8-11-42(7)31(20(43)16-18-19-17-39(4,36(53)54)13-12-38(19,3)14-15-41(18,42)6)40(21,5)10-9-22(37)55-35-30(26(47)25(46)29(57-35)33(51)52)58-34-27(48)23(44)24(45)28(56-34)32(49)50/h16,19,21-31,34-35,44-48H,8-15,17H2,1-7H3,(H,49,50)(H,51,52)(H,53,54)/t19-,21-,22-,23-,24-,25-,26-,27+,28-,29-,30-,31+,34-,35-,38+,39-,40+,41+,42+/m0/s1
#inchikey LPLVUJXQOOQHMX
#origInchi InChI=1S/C42H62O16.H3N/c1-37(2)21-8-11-42(7)31(20(43)16-18-19-17-39(4,36(53)54)13-12-38(19,3)14-15-41(18,42)6)40(21,5)10-9-22(37)55-35-30(26(47)25(46)29(57-35)33(51)52)58-34-27(48)23(44)24(45)28(56-34)32(49)50;/h16,19,21-31,34-35,44-48H,8-15,17H2,1-7H3,(H,49,50)(H,51,52)(H,53,54);1H3/t19-,21-,22-,23-,24-,25-,26-,27+,28-,29-,30-,31+,34-,35-,38+,39-,40+,41+,42+;/m0./s1
#Ion_Source LC-ESI
#Instrument qTof
#Compound_Source Commercial
#PI Dorrestein
#Data_Collector Garg_Neha
#Scan -1
#Precursor_MZ 845.393
#ExactMass 822.404
#Charge 1
#CAS_Number 1407-03-0
#Pubmed_ID N/A
#Smiles [C@@]1(CC[C@]2([C@@](C1)(C3[C@@](CC2)([C@]4([C@](C(C=3)=O)([C@]5([C@@](CC4)(C([C@H](CC5)O[C@]6(O[C@@H]([C@H]([C@@H]([C@@H]6O[C@]7([C@@H]([C@H]([C@@H]([C@H](O7)C(=O)O)O)O)O)[H])O)O)C(O)=O)[H])(C)C)[H])C)[H])C)C)[H])C)(C)C(O)=O.N
#INCHI_AUX N/A
#Library_Class 1
#SpectrumID CCMSLIB00000078464
#IonMode Positive
#UpdateWorkflowName UPDATE-SINGLE-ANNOTATED-GOLD
#LibraryQualityString Gold
#TaskID 77f51c88eb8b467eb4a01dd2d0cb90d2
##Scan# 1206
#SpectrumFile Plate7_21_40_GD3_01_15768.mzXML
#LibraryName FDALibrary_2_04302014.mgf
#MQScore -1
#Organism FDALibrary_2_04302014
#TIC_Query 0
#RT_Query -1
#MZErrorPPM -1
#SharedPeaks 0
#MassDiff 0
#LibMZ -1
#SpecMZ 845.393
#SpecCharge 0
#internalFilename spec-00000.mgf

>collision 0
157.0095 4.83
163.0015 3.11
181.0101 4.96
199.1459 3.18
241.1941 3.97
283.0448 11.85
350.9735 3.18
357.04 17.27
375.0529 96.76
376.0621 23.43
417.2979 3.51
427.006 3.04
439.3545 3.57
453.3361 17.8
471.3475 22.1
475.317 9.93
476.3268 4.9
493.3294 100.0
495.331 7.81
511.3358 49.24
513.3508 4.96
535.3438 4.9
634.299 3.04
647.3669 6.88
666.3483 6.35
669.3609 64.73
704.3228 3.11
755.3768 5.43
845.3901 208.74
